build,computer.platform,date,time,subjectid,session,blockcode,blocknum,trialcode,trialnum,phase1BlockCount,phase3BlockCount,phase,N,stimulusitem1,stimulusnumber1,currenttarget,response,correct,latency,N1_x,level1Reward,levelXReward,selectedN,RoundWinAmount,TotalWinAmount,adjust_N2_1,mentaldemand,physicaldemand,temporaldemand,performance,effort,frustration,newID
6.4.0,win,3/10/21,12:06:50,59,1,1back,2,start,3,1,0,1,1,,1,0,0,0,2000,25pct,NA,NA,NA,0,0,0,NA,NA,NA,NA,NA,NA,59
6.4.0,win,3/10/21,12:06:50,59,1,1back,2,nontarget,5,1,0,1,1,P,12,18,0,0,2000,25pct,NA,NA,NA,0,0,0,NA,NA,NA,NA,NA,NA,59
6.4.0,win,3/10/21,12:06:50,59,1,1back,2,nontarget,7,1,0,1,1,K,8,12,31,0,1281,25pct,NA,NA,NA,0,0,0,NA,NA,NA,NA,NA,NA,59
6.4.0,win,3/10/21,12:06:50,59,1,1back,2,nontarget,9,1,0,1,1,Q,13,8,0,0,2000,25pct,NA,NA,NA,0,0,0,NA,NA,NA,NA,NA,NA,59
6.4.0,win,3/10/21,12:06:50,59,1,1back,2,nontarget,11,1,0,1,1,L,9,13,37,1,1203,25pct,NA,NA,NA,0,0,0,NA,NA,NA,NA,NA,NA,59
6.4.0,win,3/10/21,12:06:50,59,1,1back,2,target,13,1,0,1,1,L,9,9,37,0,1466,25pct,NA,NA,NA,0,0,0,NA,NA,NA,NA,NA,NA,59
6.4.0,win,3/10/21,12:06:50,59,1,1back,2,nontarget,15,1,0,1,1,D,3,9,37,1,762,25pct,NA,NA,NA,0,0,0,NA,NA,NA,NA,NA,NA,59
6.4.0,win,3/10/21,12:06:50,59,1,1back,2,target,17,1,0,1,1,D,3,3,31,1,1352,25pct,NA,NA,NA,0,0,0,NA,NA,NA,NA,NA,NA,59
6.4.0,win,3/10/21,12:06:50,59,1,1back,2,target,19,1,0,1,1,D,3,3,31,1,739,25pct,NA,NA,NA,0,0,0,NA,NA,NA,NA,NA,NA,59
6.4.0,win,3/10/21,12:06:50,59,1,1back,2,nontarget,21,1,0,1,1,R,14,3,37,1,759,25pct,NA,NA,NA,0,0,0,NA,NA,NA,NA,NA,NA,59
6.4.0,win,3/10/21,12:06:50,59,1,1back,2,nontarget,23,1,0,1,1,W,18,14,37,1,598,25pct,NA,NA,NA,0,0,0,NA,NA,NA,NA,NA,NA,59
6.4.0,win,3/10/21,12:06:50,59,1,1back,2,nontarget,25,1,0,1,1,N,11,18,37,1,708,25pct,NA,NA,NA,0,0,0,NA,NA,NA,NA,NA,NA,59
6.4.0,win,3/10/21,12:06:50,59,1,1back,2,nontarget,27,1,0,1,1,R,14,11,37,1,574,25pct,NA,NA,NA,0,0,0,NA,NA,NA,NA,NA,NA,59
6.4.0,win,3/10/21,12:06:50,59,1,1back,2,target,29,1,0,1,1,R,14,14,31,1,708,25pct,NA,NA,NA,0,0,0,NA,NA,NA,NA,NA,NA,59
6.4.0,win,3/10/21,12:06:50,59,1,1back,2,target,31,1,0,1,1,R,14,14,31,1,689,25pct,NA,NA,NA,0,0,0,NA,NA,NA,NA,NA,NA,59
6.4.0,win,3/10/21,12:06:50,59,1,1back,2,nontarget,33,1,0,1,1,K,8,14,37,1,779,25pct,NA,NA,NA,0,0,0,NA,NA,NA,NA,NA,NA,59
6.4.0,win,3/10/21,12:06:50,59,1,1back,2,nontarget,35,1,0,1,1,C,2,8,37,1,848,25pct,NA,NA,NA,0,0,0,NA,NA,NA,NA,NA,NA,59
6.4.0,win,3/10/21,12:06:50,59,1,1back,2,nontarget,37,1,0,1,1,G,5,2,37,1,959,25pct,NA,NA,NA,0,0,0,NA,NA,NA,NA,NA,NA,59
6.4.0,win,3/10/21,12:06:50,59,1,1back,2,nontarget,39,1,0,1,1,S,15,5,31,0,1203,25pct,NA,NA,NA,0,0,0,NA,NA,NA,NA,NA,NA,59
6.4.0,win,3/10/21,12:06:50,59,1,1back,2,nontarget,41,1,0,1,1,B,1,15,37,1,551,25pct,NA,NA,NA,0,0,0,NA,NA,NA,NA,NA,NA,59
6.4.0,win,3/10/21,12:06:50,59,1,1back,2,nontarget,43,1,0,1,1,P,12,1,37,1,593,25pct,NA,NA,NA,0,0,0,NA,NA,NA,NA,NA,NA,59
6.4.0,win,3/10/21,12:06:50,59,1,ratingSummary,4,ratingSummary,1,1,0,1,1,0,0,NA,0,0,0,25pct,NA,NA,NA,0,0,0,17,9,18,5,15,21,59
6.4.0,win,3/10/21,12:06:50,59,1,2back,5,start,3,2,0,1,2,,1,0,37,1,903,25pct,NA,NA,NA,0,0,0,NA,NA,NA,NA,NA,NA,59
6.4.0,win,3/10/21,12:06:50,59,1,2back,5,start,4,2,0,1,2,,1,0,37,1,546,25pct,NA,NA,NA,0,0,0,NA,NA,NA,NA,NA,NA,59
6.4.0,win,3/10/21,12:06:50,59,1,2back,5,nontarget,6,2,0,1,2,W,18,16,37,1,510,25pct,NA,NA,NA,0,0,0,NA,NA,NA,NA,NA,NA,59
6.4.0,win,3/10/21,12:06:50,59,1,2back,5,nontarget,8,2,0,1,2,G,5,3,37,1,590,25pct,NA,NA,NA,0,0,0,NA,NA,NA,NA,NA,NA,59
6.4.0,win,3/10/21,12:06:50,59,1,2back,5,target,10,2,0,1,2,W,18,18,0,0,2000,25pct,NA,NA,NA,0,0,0,NA,NA,NA,NA,NA,NA,59
6.4.0,win,3/10/21,12:06:50,59,1,2back,5,nontarget,12,2,0,1,2,Q,13,5,37,1,836,25pct,NA,NA,NA,0,0,0,NA,NA,NA,NA,NA,NA,59
6.4.0,win,3/10/21,12:06:50,59,1,2back,5,target,14,2,0,1,2,W,18,18,31,1,1740,25pct,NA,NA,NA,0,0,0,NA,NA,NA,NA,NA,NA,59
6.4.0,win,3/10/21,12:06:50,59,1,2back,5,nontarget,16,2,0,1,2,R,14,13,37,1,625,25pct,NA,NA,NA,0,0,0,NA,NA,NA,NA,NA,NA,59
6.4.0,win,3/10/21,12:06:50,59,1,2back,5,target,18,2,0,1,2,W,18,18,31,1,1083,25pct,NA,NA,NA,0,0,0,NA,NA,NA,NA,NA,NA,59
6.4.0,win,3/10/21,12:06:50,59,1,2back,5,nontarget,20,2,0,1,2,Z,20,14,37,1,700,25pct,NA,NA,NA,0,0,0,NA,NA,NA,NA,NA,NA,59
6.4.0,win,3/10/21,12:06:50,59,1,2back,5,nontarget,22,2,0,1,2,M,10,18,37,1,761,25pct,NA,NA,NA,0,0,0,NA,NA,NA,NA,NA,NA,59
6.4.0,win,3/10/21,12:06:50,59,1,2back,5,nontarget,24,2,0,1,2,K,8,20,37,1,662,25pct,NA,NA,NA,0,0,0,NA,NA,NA,NA,NA,NA,59
6.4.0,win,3/10/21,12:06:50,59,1,2back,5,nontarget,26,2,0,1,2,J,7,10,37,1,743,25pct,NA,NA,NA,0,0,0,NA,NA,NA,NA,NA,NA,59
6.4.0,win,3/10/21,12:06:50,59,1,2back,5,nontarget,28,2,0,1,2,P,12,8,37,1,765,25pct,NA,NA,NA,0,0,0,NA,NA,NA,NA,NA,NA,59
6.4.0,win,3/10/21,12:06:50,59,1,2back,5,nontarget,30,2,0,1,2,C,2,7,37,1,676,25pct,NA,NA,NA,0,0,0,NA,NA,NA,NA,NA,NA,59
6.4.0,win,3/10/21,12:06:50,59,1,2back,5,nontarget,32,2,0,1,2,C,2,12,37,1,1889,25pct,NA,NA,NA,0,0,0,NA,NA,NA,NA,NA,NA,59
6.4.0,win,3/10/21,12:06:50,59,1,2back,5,nontarget,34,2,0,1,2,Z,20,2,37,1,1079,25pct,NA,NA,NA,0,0,0,NA,NA,NA,NA,NA,NA,59
6.4.0,win,3/10/21,12:06:50,59,1,2back,5,target,36,2,0,1,2,C,2,2,31,1,982,25pct,NA,NA,NA,0,0,0,NA,NA,NA,NA,NA,NA,59
6.4.0,win,3/10/21,12:06:50,59,1,2back,5,target,38,2,0,1,2,Z,20,20,31,1,1035,25pct,NA,NA,NA,0,0,0,NA,NA,NA,NA,NA,NA,59
6.4.0,win,3/10/21,12:06:50,59,1,2back,5,nontarget,40,2,0,1,2,S,15,2,37,1,893,25pct,NA,NA,NA,0,0,0,NA,NA,NA,NA,NA,NA,59
6.4.0,win,3/10/21,12:06:50,59,1,2back,5,nontarget,42,2,0,1,2,N,11,20,37,1,770,25pct,NA,NA,NA,0,0,0,NA,NA,NA,NA,NA,NA,59
6.4.0,win,3/10/21,12:06:50,59,1,2back,5,nontarget,44,2,0,1,2,R,14,15,37,1,745,25pct,NA,NA,NA,0,0,0,NA,NA,NA,NA,NA,NA,59
6.4.0,win,3/10/21,12:06:50,59,1,ratingSummary,7,ratingSummary,1,2,0,1,2,0,0,NA,0,0,0,25pct,NA,NA,NA,0,0,0,15,9,16,8,15,20,59
6.4.0,win,3/10/21,12:06:50,59,1,3back,8,start,3,3,0,1,3,,1,0,0,0,2000,25pct,NA,NA,NA,0,0,0,NA,NA,NA,NA,NA,NA,59
6.4.0,win,3/10/21,12:06:50,59,1,3back,8,start,4,3,0,1,3,,1,0,0,0,2000,25pct,NA,NA,NA,0,0,0,NA,NA,NA,NA,NA,NA,59
6.4.0,win,3/10/21,12:06:50,59,1,3back,8,start,5,3,0,1,3,,1,0,0,0,2000,25pct,NA,NA,NA,0,0,0,NA,NA,NA,NA,NA,NA,59
6.4.0,win,3/10/21,12:06:50,59,1,3back,8,nontarget,7,3,0,1,3,X,19,17,0,0,2000,25pct,NA,NA,NA,0,0,0,NA,NA,NA,NA,NA,NA,59
6.4.0,win,3/10/21,12:06:50,59,1,3back,8,nontarget,9,3,0,1,3,Z,20,17,37,1,1190,25pct,NA,NA,NA,0,0,0,NA,NA,NA,NA,NA,NA,59
6.4.0,win,3/10/21,12:06:50,59,1,3back,8,target,11,3,0,1,3,R,14,14,31,1,1034,25pct,NA,NA,NA,0,0,0,NA,NA,NA,NA,NA,NA,59
6.4.0,win,3/10/21,12:06:50,59,1,3back,8,nontarget,13,3,0,1,3,K,8,19,37,1,956,25pct,NA,NA,NA,0,0,0,NA,NA,NA,NA,NA,NA,59
6.4.0,win,3/10/21,12:06:50,59,1,3back,8,target,15,3,0,1,3,Z,20,20,31,1,1143,25pct,NA,NA,NA,0,0,0,NA,NA,NA,NA,NA,NA,59
6.4.0,win,3/10/21,12:06:50,59,1,3back,8,nontarget,17,3,0,1,3,H,6,14,37,1,876,25pct,NA,NA,NA,0,0,0,NA,NA,NA,NA,NA,NA,59
6.4.0,win,3/10/21,12:06:50,59,1,3back,8,nontarget,19,3,0,1,3,S,15,8,37,1,705,25pct,NA,NA,NA,0,0,0,NA,NA,NA,NA,NA,NA,59
6.4.0,win,3/10/21,12:06:50,59,1,3back,8,target,21,3,0,1,3,Z,20,20,31,1,1197,25pct,NA,NA,NA,0,0,0,NA,NA,NA,NA,NA,NA,59
6.4.0,win,3/10/21,12:06:50,59,1,3back,8,nontarget,23,3,0,1,3,N,11,6,37,1,680,25pct,NA,NA,NA,0,0,0,NA,NA,NA,NA,NA,NA,59
6.4.0,win,3/10/21,12:06:50,59,1,3back,8,nontarget,25,3,0,1,3,T,16,15,37,1,660,25pct,NA,NA,NA,0,0,0,NA,NA,NA,NA,NA,NA,59
6.4.0,win,3/10/21,12:06:50,59,1,3back,8,nontarget,27,3,0,1,3,M,10,20,37,1,613,25pct,NA,NA,NA,0,0,0,NA,NA,NA,NA,NA,NA,59
6.4.0,win,3/10/21,12:06:50,59,1,3back,8,nontarget,29,3,0,1,3,B,1,11,37,1,670,25pct,NA,NA,NA,0,0,0,NA,NA,NA,NA,NA,NA,59
6.4.0,win,3/10/21,12:06:50,59,1,3back,8,nontarget,31,3,0,1,3,R,14,16,37,1,598,25pct,NA,NA,NA,0,0,0,NA,NA,NA,NA,NA,NA,59
6.4.0,win,3/10/21,12:06:50,59,1,3back,8,nontarget,33,3,0,1,3,T,16,10,37,1,670,25pct,NA,NA,NA,0,0,0,NA,NA,NA,NA,NA,NA,59
6.4.0,win,3/10/21,12:06:50,59,1,3back,8,nontarget,35,3,0,1,3,X,19,1,37,1,767,25pct,NA,NA,NA,0,0,0,NA,NA,NA,NA,NA,NA,59
6.4.0,win,3/10/21,12:06:50,59,1,3back,8,target,37,3,0,1,3,R,14,14,31,1,887,25pct,NA,NA,NA,0,0,0,NA,NA,NA,NA,NA,NA,59
6.4.0,win,3/10/21,12:06:50,59,1,3back,8,nontarget,39,3,0,1,3,W,18,16,37,1,1366,25pct,NA,NA,NA,0,0,0,NA,NA,NA,NA,NA,NA,59
6.4.0,win,3/10/21,12:06:50,59,1,3back,8,nontarget,41,3,0,1,3,W,18,19,37,1,1175,25pct,NA,NA,NA,0,0,0,NA,NA,NA,NA,NA,NA,59
6.4.0,win,3/10/21,12:06:50,59,1,3back,8,nontarget,43,3,0,1,3,X,19,14,31,0,1320,25pct,NA,NA,NA,0,0,0,NA,NA,NA,NA,NA,NA,59
6.4.0,win,3/10/21,12:06:50,59,1,3back,8,target,45,3,0,1,3,W,18,18,31,1,1846,25pct,NA,NA,NA,0,0,0,NA,NA,NA,NA,NA,NA,59
6.4.0,win,3/10/21,12:06:50,59,1,ratingSummary,10,ratingSummary,1,3,0,1,3,0,0,NA,0,0,0,25pct,NA,NA,NA,0,0,0,17,6,19,19,17,21,59
6.4.0,win,3/10/21,12:06:50,59,1,4back,11,start,3,4,0,1,4,,1,0,37,1,833,25pct,NA,NA,NA,0,0,0,NA,NA,NA,NA,NA,NA,59
6.4.0,win,3/10/21,12:06:50,59,1,4back,11,start,4,4,0,1,4,,1,0,37,1,457,25pct,NA,NA,NA,0,0,0,NA,NA,NA,NA,NA,NA,59
6.4.0,win,3/10/21,12:06:50,59,1,4back,11,start,5,4,0,1,4,,1,0,37,1,816,25pct,NA,NA,NA,0,0,0,NA,NA,NA,NA,NA,NA,59
6.4.0,win,3/10/21,12:06:50,59,1,4back,11,start,6,4,0,1,4,,1,0,37,1,703,25pct,NA,NA,NA,0,0,0,NA,NA,NA,NA,NA,NA,59
6.4.0,win,3/10/21,12:06:50,59,1,4back,11,nontarget,8,4,0,1,4,V,17,4,37,1,839,25pct,NA,NA,NA,0,0,0,NA,NA,NA,NA,NA,NA,59
6.4.0,win,3/10/21,12:06:50,59,1,4back,11,target,10,4,0,1,4,N,11,11,31,1,1904,25pct,NA,NA,NA,0,0,0,NA,NA,NA,NA,NA,NA,59
6.4.0,win,3/10/21,12:06:50,59,1,4back,11,nontarget,12,4,0,1,4,M,10,20,37,1,797,25pct,NA,NA,NA,0,0,0,NA,NA,NA,NA,NA,NA,59
6.4.0,win,3/10/21,12:06:50,59,1,4back,11,nontarget,14,4,0,1,4,V,17,12,31,0,1016,25pct,NA,NA,NA,0,0,0,NA,NA,NA,NA,NA,NA,59
6.4.0,win,3/10/21,12:06:50,59,1,4back,11,nontarget,16,4,0,1,4,P,12,17,31,0,999,25pct,NA,NA,NA,0,0,0,NA,NA,NA,NA,NA,NA,59
6.4.0,win,3/10/21,12:06:50,59,1,4back,11,nontarget,18,4,0,1,4,R,14,11,37,1,573,25pct,NA,NA,NA,0,0,0,NA,NA,NA,NA,NA,NA,59
6.4.0,win,3/10/21,12:06:50,59,1,4back,11,target,20,4,0,1,4,M,10,10,37,0,1429,25pct,NA,NA,NA,0,0,0,NA,NA,NA,NA,NA,NA,59
6.4.0,win,3/10/21,12:06:50,59,1,4back,11,nontarget,22,4,0,1,4,Q,13,17,37,1,702,25pct,NA,NA,NA,0,0,0,NA,NA,NA,NA,NA,NA,59
6.4.0,win,3/10/21,12:06:50,59,1,4back,11,target,24,4,0,1,4,P,12,12,37,0,844,25pct,NA,NA,NA,0,0,0,NA,NA,NA,NA,NA,NA,59
6.4.0,win,3/10/21,12:06:50,59,1,4back,11,nontarget,26,4,0,1,4,B,1,14,37,1,680,25pct,NA,NA,NA,0,0,0,NA,NA,NA,NA,NA,NA,59
6.4.0,win,3/10/21,12:06:50,59,1,4back,11,nontarget,28,4,0,1,4,Q,13,10,31,0,1714,25pct,NA,NA,NA,0,0,0,NA,NA,NA,NA,NA,NA,59
6.4.0,win,3/10/21,12:06:50,59,1,4back,11,target,30,4,0,1,4,Q,13,13,37,0,1014,25pct,NA,NA,NA,0,0,0,NA,NA,NA,NA,NA,NA,59
6.4.0,win,3/10/21,12:06:50,59,1,4back,11,nontarget,32,4,0,1,4,G,5,12,37,1,670,25pct,NA,NA,NA,0,0,0,NA,NA,NA,NA,NA,NA,59
6.4.0,win,3/10/21,12:06:50,59,1,4back,11,nontarget,34,4,0,1,4,S,15,1,37,1,815,25pct,NA,NA,NA,0,0,0,NA,NA,NA,NA,NA,NA,59
6.4.0,win,3/10/21,12:06:50,59,1,4back,11,nontarget,36,4,0,1,4,X,19,13,37,1,759,25pct,NA,NA,NA,0,0,0,NA,NA,NA,NA,NA,NA,59
6.4.0,win,3/10/21,12:06:50,59,1,4back,11,nontarget,38,4,0,1,4,P,12,13,31,0,969,25pct,NA,NA,NA,0,0,0,NA,NA,NA,NA,NA,NA,59
6.4.0,win,3/10/21,12:06:50,59,1,4back,11,nontarget,40,4,0,1,4,N,11,5,37,1,1166,25pct,NA,NA,NA,0,0,0,NA,NA,NA,NA,NA,NA,59
6.4.0,win,3/10/21,12:06:50,59,1,4back,11,nontarget,42,4,0,1,4,J,7,15,37,1,633,25pct,NA,NA,NA,0,0,0,NA,NA,NA,NA,NA,NA,59
6.4.0,win,3/10/21,12:06:50,59,1,4back,11,target,44,4,0,1,4,X,19,19,37,0,1136,25pct,NA,NA,NA,0,0,0,NA,NA,NA,NA,NA,NA,59
6.4.0,win,3/10/21,12:06:50,59,1,4back,11,nontarget,46,4,0,1,4,T,16,12,37,1,560,25pct,NA,NA,NA,0,0,0,NA,NA,NA,NA,NA,NA,59
6.4.0,win,3/10/21,12:06:50,59,1,ratingSummary,13,ratingSummary,1,4,0,1,4,0,0,NA,0,0,0,25pct,NA,NA,NA,0,0,0,21,4,12,1,19,21,59
6.4.0,win,3/10/21,12:06:50,59,1,CognitiveEffortDiscounting_Practice,14,CogED_practice,1,4,0,2,2,blackframe.png,1,NA,25,0,4172,75pct,2,2,1,0,0,0,NA,NA,NA,NA,NA,NA,59
6.4.0,win,3/10/21,12:06:50,59,1,CognitiveEffortDiscounting_Practice,14,CogED_practice,3,4,0,2,2,blackframe.png,1,NA,25,0,6250,25pct,1,2,2,0,0,0,NA,NA,NA,NA,NA,NA,59
6.4.0,win,3/10/21,12:06:50,59,1,CognitiveEffortDiscounting_Practice,14,CogED_practice,5,4,0,2,2,blackframe.png,1,NA,25,0,4216,25pct,1.5,2,2,0,0,0,NA,NA,NA,NA,NA,NA,59
6.4.0,win,3/10/21,12:06:50,59,1,CognitiveEffortDiscounting_Practice,14,CogED_practice,7,4,0,2,2,blackframe.png,1,NA,25,0,4707,25pct,1.75,2,2,0,0,0,NA,NA,NA,NA,NA,NA,59
6.4.0,win,3/10/21,12:06:50,59,1,CognitiveEffortDiscounting_Practice,14,CogED_practice,9,4,0,2,2,blackframe.png,1,NA,16,0,3753,75pct,1.875,2,2,0,0,0,NA,NA,NA,NA,NA,NA,59
6.4.0,win,3/10/21,12:06:50,59,1,CognitiveEffortDiscounting_Practice,14,CogED_practice,11,4,0,2,2,blackframe.png,1,NA,16,0,1455,75pct,1.9375,2,2,0,0,0,NA,NA,NA,NA,NA,NA,59
6.4.0,win,3/10/21,12:06:50,59,1,CognitiveEffortDiscounting,15,CogED_N3_1,1,4,0,2,3,blackframe.png,1,NA,16,0,5464,25pct,2,2,1,0,0,2,NA,NA,NA,NA,NA,NA,59
6.4.0,win,3/10/21,12:06:50,59,1,CognitiveEffortDiscounting,15,CogED_N2_3,4,4,0,2,2,blackframe.png,1,NA,25,0,3285,25pct,4,4,2,0,0,2,NA,NA,NA,NA,NA,NA,59
6.4.0,win,3/10/21,12:06:50,59,1,CognitiveEffortDiscounting,15,CogED_N4_1,6,4,0,2,4,blackframe.png,1,NA,25,0,2565,75pct,2,2,1,0,0,2,NA,NA,NA,NA,NA,NA,59
6.4.0,win,3/10/21,12:06:50,59,1,CognitiveEffortDiscounting,15,CogED_N4_2,12,4,0,2,4,blackframe.png,1,NA,16,0,1933,25pct,3,3,1,0,0,2,NA,NA,NA,NA,NA,NA,59
6.4.0,win,3/10/21,12:06:50,59,1,CognitiveEffortDiscounting,15,CogED_N2_3,14,4,0,2,2,blackframe.png,1,NA,25,0,955,75pct,4,2,1,0,0,2,NA,NA,NA,NA,NA,NA,59
6.4.0,win,3/10/21,12:06:50,59,1,CognitiveEffortDiscounting,15,CogED_N4_2,21,4,0,2,4,blackframe.png,1,NA,25,0,962,75pct,1.5,3,1,0,0,2,NA,NA,NA,NA,NA,NA,59
6.4.0,win,3/10/21,12:06:50,59,1,CognitiveEffortDiscounting,15,CogED_N3_1,26,4,0,2,3,blackframe.png,1,NA,25,0,863,25pct,1,2,3,0,0,2,NA,NA,NA,NA,NA,NA,59
6.4.0,win,3/10/21,12:06:50,59,1,CognitiveEffortDiscounting,15,CogED_N2_1,29,4,0,2,2,blackframe.png,1,NA,25,0,2357,75pct,2,2,1,0,0,1,NA,NA,NA,NA,NA,NA,59
6.4.0,win,3/10/21,12:06:50,59,1,CognitiveEffortDiscounting,15,CogED_N4_2,31,4,0,2,4,blackframe.png,1,NA,16,0,2125,75pct,0.75,3,4,0,0,1,NA,NA,NA,NA,NA,NA,59
6.4.0,win,3/10/21,12:06:50,59,1,CognitiveEffortDiscounting,15,CogED_N2_3,33,4,0,2,2,blackframe.png,1,NA,25,0,1409,75pct,4,3,1,0,0,1,NA,NA,NA,NA,NA,NA,59
6.4.0,win,3/10/21,12:06:50,59,1,CognitiveEffortDiscounting,15,CogED_N3_2,36,4,0,2,3,blackframe.png,1,NA,16,0,1550,25pct,3,3,1,0,0,1,NA,NA,NA,NA,NA,NA,59
6.4.0,win,3/10/21,12:06:50,59,1,CognitiveEffortDiscounting,15,CogED_N3_1,38,4,0,2,3,blackframe.png,1,NA,16,0,1578,25pct,1.5,2,1,0,0,1,NA,NA,NA,NA,NA,NA,59
6.4.0,win,3/10/21,12:06:50,59,1,CognitiveEffortDiscounting,15,CogED_N2_2,41,4,0,2,2,blackframe.png,1,NA,25,0,877,75pct,3,3,1,0,0,1,NA,NA,NA,NA,NA,NA,59
6.4.0,win,3/10/21,12:06:50,59,1,CognitiveEffortDiscounting,15,CogED_N4_2,46,4,0,2,4,blackframe.png,1,NA,25,0,2400,25pct,1.125,3,4,0,0,1,NA,NA,NA,NA,NA,NA,59
6.4.0,win,3/10/21,12:06:50,59,1,CognitiveEffortDiscounting,15,CogED_N3_3,49,4,0,2,3,blackframe.png,1,NA,16,0,1023,25pct,4,4,1,0,0,1,NA,NA,NA,NA,NA,NA,59
6.4.0,win,3/10/21,12:06:50,59,1,CognitiveEffortDiscounting,15,CogED_N4_1,51,4,0,2,4,blackframe.png,1,NA,16,0,1465,25pct,1,2,1,0,0,1,NA,NA,NA,NA,NA,NA,59
6.4.0,win,3/10/21,12:06:50,59,1,CognitiveEffortDiscounting,15,CogED_N3_2,54,4,0,2,3,blackframe.png,1,NA,16,0,1649,25pct,1.5,3,1,0,0,1,NA,NA,NA,NA,NA,NA,59
6.4.0,win,3/10/21,12:06:50,59,1,CognitiveEffortDiscounting,15,CogED_N3_1,56,4,0,2,3,blackframe.png,1,NA,16,0,811,25pct,1.25,2,1,0,0,1,NA,NA,NA,NA,NA,NA,59
6.4.0,win,3/10/21,12:06:50,59,1,CognitiveEffortDiscounting,15,CogED_N2_1,58,4,0,2,2,blackframe.png,1,NA,25,0,2151,75pct,1,2,1,0,0,0.5,NA,NA,NA,NA,NA,NA,59
6.4.0,win,3/10/21,12:06:50,59,1,CognitiveEffortDiscounting,15,CogED_N3_2,60,4,0,2,3,blackframe.png,1,NA,16,0,2803,75pct,0.75,3,3,0,0,0.5,NA,NA,NA,NA,NA,NA,59
6.4.0,win,3/10/21,12:06:50,59,1,CognitiveEffortDiscounting,15,CogED_N2_1,62,4,0,2,2,blackframe.png,1,NA,25,0,1019,25pct,0.5,2,2,0,0,0.25,NA,NA,NA,NA,NA,NA,59
6.4.0,win,3/10/21,12:06:50,59,1,CognitiveEffortDiscounting,15,CogED_N3_2,64,4,0,2,3,blackframe.png,1,NA,25,0,1699,25pct,1.125,3,3,0,0,0.25,NA,NA,NA,NA,NA,NA,59
6.4.0,win,3/10/21,12:06:50,59,1,CognitiveEffortDiscounting,15,CogED_N4_3,67,4,0,2,4,blackframe.png,1,NA,16,0,1092,25pct,4,4,1,0,0,0.25,NA,NA,NA,NA,NA,NA,59
6.4.0,win,3/10/21,12:06:50,59,1,CognitiveEffortDiscounting,15,CogED_N2_1,70,4,0,2,2,blackframe.png,1,NA,25,0,1345,75pct,0.75,2,1,0,0,0.125,NA,NA,NA,NA,NA,NA,59
6.4.0,win,3/10/21,12:06:50,59,1,CognitiveEffortDiscounting,15,CogED_N2_1,72,4,0,2,2,blackframe.png,1,NA,16,0,1247,75pct,0.625,2,2,0,0,0.0625,NA,NA,NA,NA,NA,NA,59
6.4.0,win,3/10/21,12:06:50,59,1,CognitiveEffortDiscounting,15,CogED_N4_3,74,4,0,2,4,blackframe.png,1,NA,16,0,1241,25pct,2,4,1,0,0,0.0625,NA,NA,NA,NA,NA,NA,59
6.4.0,win,3/10/21,12:06:50,59,1,CognitiveEffortDiscounting,15,CogED_N2_2,76,4,0,2,2,blackframe.png,1,NA,16,0,991,75pct,1.5,3,2,0,0,0.0625,NA,NA,NA,NA,NA,NA,59
6.4.0,win,3/10/21,12:06:50,59,1,CognitiveEffortDiscounting,15,reminder,78,4,0,2,2,cog_ed_nbackintro2.htm,1,NA,57,0,12161,75pct,1.5,3,2,0,0,0.0625,NA,NA,NA,NA,NA,NA,59
6.4.0,win,3/10/21,12:06:50,59,1,CognitiveEffortDiscounting,15,CogED_N3_3,80,4,0,2,3,blackframe.png,1,NA,16,0,5184,25pct,2,4,1,0,0,0.0625,NA,NA,NA,NA,NA,NA,59
6.4.0,win,3/10/21,12:06:50,59,1,CognitiveEffortDiscounting,15,CogED_N3_1,82,4,0,2,3,blackframe.png,1,NA,25,0,1023,75pct,1.125,2,1,0,0,0.0625,NA,NA,NA,NA,NA,NA,59
6.4.0,win,3/10/21,12:06:50,59,1,CognitiveEffortDiscounting,15,CogED_N4_1,84,4,0,2,4,blackframe.png,1,NA,25,0,1517,75pct,0.5,2,1,0,0,0.0625,NA,NA,NA,NA,NA,NA,59
6.4.0,win,3/10/21,12:06:50,59,1,CognitiveEffortDiscounting,15,CogED_N3_3,86,4,0,2,3,blackframe.png,1,NA,16,0,922,25pct,1,4,1,0,0,0.0625,NA,NA,NA,NA,NA,NA,59
6.4.0,win,3/10/21,12:06:50,59,1,CognitiveEffortDiscounting,15,CogED_N2_3,88,4,0,2,2,blackframe.png,1,NA,16,0,811,25pct,4,3.5,1,0,0,0.0625,NA,NA,NA,NA,NA,NA,59
6.4.0,win,3/10/21,12:06:50,59,1,CognitiveEffortDiscounting,15,CogED_N4_3,90,4,0,2,4,blackframe.png,1,NA,25,0,943,75pct,1,4,1,0,0,0.0625,NA,NA,NA,NA,NA,NA,59
6.4.0,win,3/10/21,12:06:50,59,1,CognitiveEffortDiscounting,15,CogED_N4_3,92,4,0,2,4,blackframe.png,1,NA,16,0,1017,25pct,0.5,4,1,0,0,0.0625,NA,NA,NA,NA,NA,NA,59
6.4.0,win,3/10/21,12:06:50,59,1,CognitiveEffortDiscounting,15,CogED_N3_3,94,4,0,2,3,blackframe.png,1,NA,25,0,710,75pct,0.5,4,1,0,0,0.0625,NA,NA,NA,NA,NA,NA,59
6.4.0,win,3/10/21,12:06:50,59,1,CognitiveEffortDiscounting,15,CogED_N3_1,96,4,0,2,3,blackframe.png,1,NA,16,0,664,25pct,1.0625,2,1,0,0,0.0625,NA,NA,NA,NA,NA,NA,59
6.4.0,win,3/10/21,12:06:50,59,1,CognitiveEffortDiscounting,15,CogED_N2_2,98,4,0,2,2,blackframe.png,1,NA,16,0,749,25pct,2.25,3,1,0,0,0.0625,NA,NA,NA,NA,NA,NA,59
6.4.0,win,3/10/21,12:06:50,59,1,CognitiveEffortDiscounting,15,CogED_N4_1,101,4,0,2,4,blackframe.png,1,NA,16,0,790,25pct,0.25,2,1,0,0,0.0625,NA,NA,NA,NA,NA,NA,59
6.4.0,win,3/10/21,12:06:50,59,1,CognitiveEffortDiscounting,15,CogED_N2_1,104,4,0,2,2,blackframe.png,1,NA,25,0,757,75pct,0.6875,2,1,0,0,0.03125,NA,NA,NA,NA,NA,NA,59
6.4.0,win,3/10/21,12:06:50,59,1,CognitiveEffortDiscounting,15,CogED_N4_1,106,4,0,2,4,blackframe.png,1,NA,16,0,741,25pct,0.125,2,1,0,0,0.03125,NA,NA,NA,NA,NA,NA,59
6.4.0,win,3/10/21,12:06:50,59,1,CognitiveEffortDiscounting,15,CogED_N2_2,109,4,0,2,2,blackframe.png,1,NA,25,0,669,75pct,1.875,3,1,0,0,0.03125,NA,NA,NA,NA,NA,NA,59
6.4.0,win,3/10/21,12:06:50,59,1,CognitiveEffortDiscounting,15,CogED_N4_2,111,4,0,2,4,blackframe.png,1,NA,25,0,720,75pct,1.3125,3,1,0,0,0.03125,NA,NA,NA,NA,NA,NA,59
6.4.0,win,3/10/21,12:06:50,59,1,CognitiveEffortDiscounting,15,CogED_N4_3,113,4,0,2,4,blackframe.png,1,NA,25,0,696,75pct,0.25,4,1,0,0,0.03125,NA,NA,NA,NA,NA,NA,59
6.4.0,win,3/10/21,12:06:50,59,1,CognitiveEffortDiscounting,15,CogED_N4_1,116,4,0,2,4,blackframe.png,1,NA,16,0,852,25pct,0.0625,2,1,0,0,0.03125,NA,NA,NA,NA,NA,NA,59
6.4.0,win,3/10/21,12:06:50,59,1,CognitiveEffortDiscounting,15,CogED_N2_2,118,4,0,2,2,blackframe.png,1,NA,25,0,623,75pct,1.6875,3,1,0,0,0.03125,NA,NA,NA,NA,NA,NA,59
6.4.0,win,3/10/21,12:06:50,59,1,CognitiveEffortDiscounting,15,CogED_N3_3,121,4,0,2,3,blackframe.png,1,NA,25,0,746,75pct,0.25,4,1,0,0,0.03125,NA,NA,NA,NA,NA,NA,59
6.4.0,win,3/10/21,12:06:50,59,1,CognitiveEffortDiscounting,15,CogED_N2_3,123,4,0,2,2,blackframe.png,1,NA,16,0,557,25pct,4,3.75,1,0,0,0.03125,NA,NA,NA,NA,NA,NA,59
6.4.0,win,3/10/21,12:06:50,59,1,CognitiveEffortDiscounting,15,CogED_N3_3,125,4,0,2,3,blackframe.png,1,NA,25,0,564,75pct,0.125,4,1,0,0,0.03125,NA,NA,NA,NA,NA,NA,59
6.4.0,win,3/10/21,12:06:50,59,1,CognitiveEffortDiscounting,15,CogED_N3_2,127,4,0,2,3,blackframe.png,1,NA,16,0,591,25pct,1.3125,3,1,0,0,0.03125,NA,NA,NA,NA,NA,NA,59
6.4.0,win,3/10/21,12:06:50,59,1,CognitiveEffortDiscounting,15,CogED_N2_3,132,4,0,2,2,blackframe.png,1,NA,25,0,570,75pct,4,3.875,1,0,0,0.03125,NA,NA,NA,NA,NA,NA,59
6.4.0,win,3/10/21,12:06:50,59,1,CognitiveEffortDiscounting,15,CogED_N2_2,134,4,0,2,2,blackframe.png,1,NA,25,0,713,75pct,1.59375,3,1,0,0,0.03125,NA,NA,NA,NA,NA,NA,59
6.4.0,win,3/10/21,12:06:50,59,1,CognitiveEffortDiscounting,15,CogED_N4_2,136,4,0,2,4,blackframe.png,1,NA,25,0,631,75pct,1.21875,3,1,0,0,0.03125,NA,NA,NA,NA,NA,NA,59
6.4.0,win,3/10/21,12:06:50,59,1,CognitiveEffortDiscounting,15,CogED_N4_3,138,4,0,2,4,blackframe.png,1,NA,16,0,786,25pct,0.125,4,1,0,0,0.03125,NA,NA,NA,NA,NA,NA,59
6.4.0,win,3/10/21,12:06:50,59,1,CognitiveEffortDiscounting,15,CogED_N3_2,140,4,0,2,3,blackframe.png,1,NA,25,0,513,75pct,1.21875,3,1,0,0,0.03125,NA,NA,NA,NA,NA,NA,59
6.4.0,win,3/10/21,12:06:50,59,1,phase3,17,start,3,4,1,3,1,,1,0,37,1,799,,NA,NA,NA,0.0625,0,0.03125,NA,NA,NA,NA,NA,NA,59
6.4.0,win,3/10/21,12:06:50,59,1,phase3,17,nontarget,5,4,1,3,1,X,19,5,37,1,529,,NA,NA,NA,0.0625,0,0.03125,NA,NA,NA,NA,NA,NA,59
6.4.0,win,3/10/21,12:06:50,59,1,phase3,17,target,7,4,1,3,1,X,19,19,31,1,663,,NA,NA,NA,0.0625,0,0.03125,NA,NA,NA,NA,NA,NA,59
6.4.0,win,3/10/21,12:06:50,59,1,phase3,17,nontarget,9,4,1,3,1,G,5,19,37,1,918,,NA,NA,NA,0.0625,0,0.03125,NA,NA,NA,NA,NA,NA,59
6.4.0,win,3/10/21,12:06:50,59,1,phase3,17,nontarget,11,4,1,3,1,S,15,5,37,1,853,,NA,NA,NA,0.0625,0,0.03125,NA,NA,NA,NA,NA,NA,59
6.4.0,win,3/10/21,12:06:50,59,1,phase3,17,nontarget,13,4,1,3,1,D,3,15,37,1,555,,NA,NA,NA,0.0625,0,0.03125,NA,NA,NA,NA,NA,NA,59
6.4.0,win,3/10/21,12:06:50,59,1,phase3,17,target,15,4,1,3,1,D,3,3,31,1,613,,NA,NA,NA,0.0625,0,0.03125,NA,NA,NA,NA,NA,NA,59
6.4.0,win,3/10/21,12:06:50,59,1,phase3,17,target,17,4,1,3,1,D,3,3,31,1,844,,NA,NA,NA,0.0625,0,0.03125,NA,NA,NA,NA,NA,NA,59
6.4.0,win,3/10/21,12:06:50,59,1,phase3,17,nontarget,19,4,1,3,1,Z,20,3,37,1,518,,NA,NA,NA,0.0625,0,0.03125,NA,NA,NA,NA,NA,NA,59
6.4.0,win,3/10/21,12:06:50,59,1,phase3,17,nontarget,21,4,1,3,1,S,15,20,37,1,882,,NA,NA,NA,0.0625,0,0.03125,NA,NA,NA,NA,NA,NA,59
6.4.0,win,3/10/21,12:06:50,59,1,phase3,17,nontarget,23,4,1,3,1,T,16,15,37,1,593,,NA,NA,NA,0.0625,0,0.03125,NA,NA,NA,NA,NA,NA,59
6.4.0,win,3/10/21,12:06:50,59,1,phase3,17,nontarget,25,4,1,3,1,Z,20,16,37,1,1660,,NA,NA,NA,0.0625,0,0.03125,NA,NA,NA,NA,NA,NA,59
6.4.0,win,3/10/21,12:06:50,59,1,phase3,17,nontarget,27,4,1,3,1,W,18,20,37,1,765,,NA,NA,NA,0.0625,0,0.03125,NA,NA,NA,NA,NA,NA,59
6.4.0,win,3/10/21,12:06:50,59,1,phase3,17,nontarget,29,4,1,3,1,H,6,18,37,1,518,,NA,NA,NA,0.0625,0,0.03125,NA,NA,NA,NA,NA,NA,59
6.4.0,win,3/10/21,12:06:50,59,1,phase3,17,nontarget,31,4,1,3,1,J,7,6,37,1,446,,NA,NA,NA,0.0625,0,0.03125,NA,NA,NA,NA,NA,NA,59
6.4.0,win,3/10/21,12:06:50,59,1,phase3,17,nontarget,33,4,1,3,1,D,3,7,37,1,489,,NA,NA,NA,0.0625,0,0.03125,NA,NA,NA,NA,NA,NA,59
6.4.0,win,3/10/21,12:06:50,59,1,phase3,17,target,35,4,1,3,1,D,3,3,31,1,538,,NA,NA,NA,0.0625,0,0.03125,NA,NA,NA,NA,NA,NA,59
6.4.0,win,3/10/21,12:06:50,59,1,phase3,17,nontarget,37,4,1,3,1,W,18,3,37,1,625,,NA,NA,NA,0.0625,0,0.03125,NA,NA,NA,NA,NA,NA,59
6.4.0,win,3/10/21,12:06:50,59,1,phase3,17,nontarget,39,4,1,3,1,G,5,18,37,1,508,,NA,NA,NA,0.0625,0,0.03125,NA,NA,NA,NA,NA,NA,59
6.4.0,win,3/10/21,12:06:50,59,1,phase3,17,target,41,4,1,3,1,G,5,5,31,1,484,,NA,NA,NA,0.0625,0,0.03125,NA,NA,NA,NA,NA,NA,59
6.4.0,win,3/10/21,12:06:50,59,1,phase3,17,nontarget,43,4,1,3,1,H,6,5,37,1,584,,NA,NA,NA,0.0625,0,0.03125,NA,NA,NA,NA,NA,NA,59
6.4.0,win,3/10/21,12:06:50,59,1,finish,18,finish,1,4,1,3,1,Thank you!,1,5,57,0,1657,,NA,NA,NA,0.0625,0.0625,0.03125,NA,NA,NA,NA,NA,NA,59
6.4.0,win,3/10/21,12:18:48,57,1,1back,2,start,3,1,0,1,1,,1,0,0,0,2000,25pct,NA,NA,NA,0,0,0,NA,NA,NA,NA,NA,NA,57
6.4.0,win,3/10/21,12:18:48,57,1,1back,2,nontarget,5,1,0,1,1,B,1,16,0,0,2000,25pct,NA,NA,NA,0,0,0,NA,NA,NA,NA,NA,NA,57
6.4.0,win,3/10/21,12:18:48,57,1,1back,2,nontarget,7,1,0,1,1,X,19,1,0,0,2000,25pct,NA,NA,NA,0,0,0,NA,NA,NA,NA,NA,NA,57
6.4.0,win,3/10/21,12:18:48,57,1,1back,2,target,9,1,0,1,1,X,19,19,37,0,698,25pct,NA,NA,NA,0,0,0,NA,NA,NA,NA,NA,NA,57
6.4.0,win,3/10/21,12:18:48,57,1,1back,2,nontarget,11,1,0,1,1,R,14,19,37,1,1820,25pct,NA,NA,NA,0,0,0,NA,NA,NA,NA,NA,NA,57
6.4.0,win,3/10/21,12:18:48,57,1,1back,2,target,13,1,0,1,1,R,14,14,0,0,2000,25pct,NA,NA,NA,0,0,0,NA,NA,NA,NA,NA,NA,57
6.4.0,win,3/10/21,12:18:48,57,1,1back,2,nontarget,15,1,0,1,1,T,16,14,31,0,1304,25pct,NA,NA,NA,0,0,0,NA,NA,NA,NA,NA,NA,57
6.4.0,win,3/10/21,12:18:48,57,1,1back,2,nontarget,17,1,0,1,1,P,12,16,31,0,627,25pct,NA,NA,NA,0,0,0,NA,NA,NA,NA,NA,NA,57
6.4.0,win,3/10/21,12:18:48,57,1,1back,2,nontarget,19,1,0,1,1,Z,20,12,37,1,1056,25pct,NA,NA,NA,0,0,0,NA,NA,NA,NA,NA,NA,57
6.4.0,win,3/10/21,12:18:48,57,1,1back,2,nontarget,21,1,0,1,1,K,8,20,37,1,1001,25pct,NA,NA,NA,0,0,0,NA,NA,NA,NA,NA,NA,57
6.4.0,win,3/10/21,12:18:48,57,1,1back,2,nontarget,23,1,0,1,1,T,16,8,31,0,1628,25pct,NA,NA,NA,0,0,0,NA,NA,NA,NA,NA,NA,57
6.4.0,win,3/10/21,12:18:48,57,1,1back,2,nontarget,25,1,0,1,1,H,6,16,31,0,976,25pct,NA,NA,NA,0,0,0,NA,NA,NA,NA,NA,NA,57
6.4.0,win,3/10/21,12:18:48,57,1,1back,2,nontarget,27,1,0,1,1,P,12,6,31,0,1278,25pct,NA,NA,NA,0,0,0,NA,NA,NA,NA,NA,NA,57
6.4.0,win,3/10/21,12:18:48,57,1,1back,2,target,29,1,0,1,1,P,12,12,31,1,1617,25pct,NA,NA,NA,0,0,0,NA,NA,NA,NA,NA,NA,57
6.4.0,win,3/10/21,12:18:48,57,1,1back,2,nontarget,31,1,0,1,1,F,4,12,31,0,1756,25pct,NA,NA,NA,0,0,0,NA,NA,NA,NA,NA,NA,57
6.4.0,win,3/10/21,12:18:48,57,1,1back,2,target,33,1,0,1,1,F,4,4,31,1,1101,25pct,NA,NA,NA,0,0,0,NA,NA,NA,NA,NA,NA,57
6.4.0,win,3/10/21,12:18:48,57,1,1back,2,nontarget,35,1,0,1,1,K,8,4,37,1,1142,25pct,NA,NA,NA,0,0,0,NA,NA,NA,NA,NA,NA,57
6.4.0,win,3/10/21,12:18:48,57,1,1back,2,nontarget,37,1,0,1,1,D,3,8,37,1,1309,25pct,NA,NA,NA,0,0,0,NA,NA,NA,NA,NA,NA,57
6.4.0,win,3/10/21,12:18:48,57,1,1back,2,target,39,1,0,1,1,D,3,3,37,0,809,25pct,NA,NA,NA,0,0,0,NA,NA,NA,NA,NA,NA,57
6.4.0,win,3/10/21,12:18:48,57,1,1back,2,nontarget,41,1,0,1,1,P,12,3,31,0,654,25pct,NA,NA,NA,0,0,0,NA,NA,NA,NA,NA,NA,57
6.4.0,win,3/10/21,12:18:48,57,1,1back,2,nontarget,43,1,0,1,1,F,4,12,31,0,1034,25pct,NA,NA,NA,0,0,0,NA,NA,NA,NA,NA,NA,57
6.4.0,win,3/10/21,12:18:48,57,1,ratingSummary,4,ratingSummary,1,1,0,1,1,0,0,NA,0,0,0,25pct,NA,NA,NA,0,0,0,18,7,17,11,10,11,57
6.4.0,win,3/10/21,12:18:48,57,1,2back,5,start,3,2,0,1,2,,1,0,37,1,1347,25pct,NA,NA,NA,0,0,0,NA,NA,NA,NA,NA,NA,57
6.4.0,win,3/10/21,12:18:48,57,1,2back,5,start,4,2,0,1,2,,1,0,37,1,1067,25pct,NA,NA,NA,0,0,0,NA,NA,NA,NA,NA,NA,57
6.4.0,win,3/10/21,12:18:48,57,1,2back,5,nontarget,6,2,0,1,2,Z,20,15,37,1,1355,25pct,NA,NA,NA,0,0,0,NA,NA,NA,NA,NA,NA,57
6.4.0,win,3/10/21,12:18:48,57,1,2back,5,nontarget,8,2,0,1,2,W,18,12,37,1,1080,25pct,NA,NA,NA,0,0,0,NA,NA,NA,NA,NA,NA,57
6.4.0,win,3/10/21,12:18:48,57,1,2back,5,nontarget,10,2,0,1,2,M,10,20,37,1,1469,25pct,NA,NA,NA,0,0,0,NA,NA,NA,NA,NA,NA,57
6.4.0,win,3/10/21,12:18:48,57,1,2back,5,nontarget,12,2,0,1,2,D,3,18,37,1,1945,25pct,NA,NA,NA,0,0,0,NA,NA,NA,NA,NA,NA,57
6.4.0,win,3/10/21,12:18:48,57,1,2back,5,nontarget,14,2,0,1,2,N,11,10,0,0,2000,25pct,NA,NA,NA,0,0,0,NA,NA,NA,NA,NA,NA,57
6.4.0,win,3/10/21,12:18:48,57,1,2back,5,target,16,2,0,1,2,D,3,3,31,1,1051,25pct,NA,NA,NA,0,0,0,NA,NA,NA,NA,NA,NA,57
6.4.0,win,3/10/21,12:18:48,57,1,2back,5,target,18,2,0,1,2,N,11,11,0,0,2000,25pct,NA,NA,NA,0,0,0,NA,NA,NA,NA,NA,NA,57
6.4.0,win,3/10/21,12:18:48,57,1,2back,5,target,20,2,0,1,2,D,3,3,31,1,1201,25pct,NA,NA,NA,0,0,0,NA,NA,NA,NA,NA,NA,57
6.4.0,win,3/10/21,12:18:48,57,1,2back,5,nontarget,22,2,0,1,2,K,8,11,37,1,1693,25pct,NA,NA,NA,0,0,0,NA,NA,NA,NA,NA,NA,57
6.4.0,win,3/10/21,12:18:48,57,1,2back,5,nontarget,24,2,0,1,2,L,9,3,37,1,1112,25pct,NA,NA,NA,0,0,0,NA,NA,NA,NA,NA,NA,57
6.4.0,win,3/10/21,12:18:48,57,1,2back,5,nontarget,26,2,0,1,2,V,17,8,37,1,1067,25pct,NA,NA,NA,0,0,0,NA,NA,NA,NA,NA,NA,57
6.4.0,win,3/10/21,12:18:48,57,1,2back,5,nontarget,28,2,0,1,2,V,17,9,37,1,1006,25pct,NA,NA,NA,0,0,0,NA,NA,NA,NA,NA,NA,57
6.4.0,win,3/10/21,12:18:48,57,1,2back,5,nontarget,30,2,0,1,2,D,3,17,31,0,781,25pct,NA,NA,NA,0,0,0,NA,NA,NA,NA,NA,NA,57
6.4.0,win,3/10/21,12:18:48,57,1,2back,5,nontarget,32,2,0,1,2,G,5,17,31,0,811,25pct,NA,NA,NA,0,0,0,NA,NA,NA,NA,NA,NA,57
6.4.0,win,3/10/21,12:18:48,57,1,2back,5,nontarget,34,2,0,1,2,V,17,3,37,1,720,25pct,NA,NA,NA,0,0,0,NA,NA,NA,NA,NA,NA,57
6.4.0,win,3/10/21,12:18:48,57,1,2back,5,target,36,2,0,1,2,G,5,5,0,0,2000,25pct,NA,NA,NA,0,0,0,NA,NA,NA,NA,NA,NA,57
6.4.0,win,3/10/21,12:18:48,57,1,2back,5,nontarget,38,2,0,1,2,M,10,17,37,1,1640,25pct,NA,NA,NA,0,0,0,NA,NA,NA,NA,NA,NA,57
6.4.0,win,3/10/21,12:18:48,57,1,2back,5,target,40,2,0,1,2,G,5,5,37,0,1246,25pct,NA,NA,NA,0,0,0,NA,NA,NA,NA,NA,NA,57
6.4.0,win,3/10/21,12:18:48,57,1,2back,5,nontarget,42,2,0,1,2,H,6,10,0,0,2000,25pct,NA,NA,NA,0,0,0,NA,NA,NA,NA,NA,NA,57
6.4.0,win,3/10/21,12:18:48,57,1,2back,5,nontarget,44,2,0,1,2,X,19,5,37,1,931,25pct,NA,NA,NA,0,0,0,NA,NA,NA,NA,NA,NA,57
6.4.0,win,3/10/21,12:18:48,57,1,ratingSummary,7,ratingSummary,1,2,0,1,2,0,0,NA,0,0,0,25pct,NA,NA,NA,0,0,0,16,15,16,16,17,16,57
6.4.0,win,3/10/21,12:18:48,57,1,3back,8,start,3,3,0,1,3,,1,0,0,0,2000,25pct,NA,NA,NA,0,0,0,NA,NA,NA,NA,NA,NA,57
6.4.0,win,3/10/21,12:18:48,57,1,3back,8,start,4,3,0,1,3,,1,0,37,1,1179,25pct,NA,NA,NA,0,0,0,NA,NA,NA,NA,NA,NA,57
6.4.0,win,3/10/21,12:18:48,57,1,3back,8,start,5,3,0,1,3,,1,0,37,1,882,25pct,NA,NA,NA,0,0,0,NA,NA,NA,NA,NA,NA,57
6.4.0,win,3/10/21,12:18:48,57,1,3back,8,nontarget,7,3,0,1,3,S,15,3,0,0,2000,25pct,NA,NA,NA,0,0,0,NA,NA,NA,NA,NA,NA,57
6.4.0,win,3/10/21,12:18:48,57,1,3back,8,nontarget,9,3,0,1,3,G,5,3,37,1,802,25pct,NA,NA,NA,0,0,0,NA,NA,NA,NA,NA,NA,57
6.4.0,win,3/10/21,12:18:48,57,1,3back,8,nontarget,11,3,0,1,3,B,1,9,31,0,1189,25pct,NA,NA,NA,0,0,0,NA,NA,NA,NA,NA,NA,57
6.4.0,win,3/10/21,12:18:48,57,1,3back,8,target,13,3,0,1,3,S,15,15,37,0,909,25pct,NA,NA,NA,0,0,0,NA,NA,NA,NA,NA,NA,57
6.4.0,win,3/10/21,12:18:48,57,1,3back,8,target,15,3,0,1,3,G,5,5,37,0,1066,25pct,NA,NA,NA,0,0,0,NA,NA,NA,NA,NA,NA,57
6.4.0,win,3/10/21,12:18:48,57,1,3back,8,nontarget,17,3,0,1,3,G,5,1,37,1,900,25pct,NA,NA,NA,0,0,0,NA,NA,NA,NA,NA,NA,57
6.4.0,win,3/10/21,12:18:48,57,1,3back,8,nontarget,19,3,0,1,3,Z,20,15,37,1,1470,25pct,NA,NA,NA,0,0,0,NA,NA,NA,NA,NA,NA,57
6.4.0,win,3/10/21,12:18:48,57,1,3back,8,nontarget,21,3,0,1,3,H,6,5,37,1,1193,25pct,NA,NA,NA,0,0,0,NA,NA,NA,NA,NA,NA,57
6.4.0,win,3/10/21,12:18:48,57,1,3back,8,nontarget,23,3,0,1,3,T,16,5,37,1,1231,25pct,NA,NA,NA,0,0,0,NA,NA,NA,NA,NA,NA,57
6.4.0,win,3/10/21,12:18:48,57,1,3back,8,nontarget,25,3,0,1,3,F,4,20,0,0,2000,25pct,NA,NA,NA,0,0,0,NA,NA,NA,NA,NA,NA,57
6.4.0,win,3/10/21,12:18:48,57,1,3back,8,nontarget,27,3,0,1,3,B,1,6,31,0,975,25pct,NA,NA,NA,0,0,0,NA,NA,NA,NA,NA,NA,57
6.4.0,win,3/10/21,12:18:48,57,1,3back,8,target,29,3,0,1,3,T,16,16,37,0,775,25pct,NA,NA,NA,0,0,0,NA,NA,NA,NA,NA,NA,57
6.4.0,win,3/10/21,12:18:48,57,1,3back,8,target,31,3,0,1,3,F,4,4,31,1,1151,25pct,NA,NA,NA,0,0,0,NA,NA,NA,NA,NA,NA,57
6.4.0,win,3/10/21,12:18:48,57,1,3back,8,nontarget,33,3,0,1,3,C,2,1,31,0,911,25pct,NA,NA,NA,0,0,0,NA,NA,NA,NA,NA,NA,57
6.4.0,win,3/10/21,12:18:48,57,1,3back,8,nontarget,35,3,0,1,3,R,14,16,37,1,712,25pct,NA,NA,NA,0,0,0,NA,NA,NA,NA,NA,NA,57
6.4.0,win,3/10/21,12:18:48,57,1,3back,8,nontarget,37,3,0,1,3,L,9,4,37,1,905,25pct,NA,NA,NA,0,0,0,NA,NA,NA,NA,NA,NA,57
6.4.0,win,3/10/21,12:18:48,57,1,3back,8,nontarget,39,3,0,1,3,Q,13,2,31,0,1236,25pct,NA,NA,NA,0,0,0,NA,NA,NA,NA,NA,NA,57
6.4.0,win,3/10/21,12:18:48,57,1,3back,8,target,41,3,0,1,3,R,14,14,37,0,1203,25pct,NA,NA,NA,0,0,0,NA,NA,NA,NA,NA,NA,57
6.4.0,win,3/10/21,12:18:48,57,1,3back,8,nontarget,43,3,0,1,3,D,3,9,31,0,1201,25pct,NA,NA,NA,0,0,0,NA,NA,NA,NA,NA,NA,57
6.4.0,win,3/10/21,12:18:48,57,1,3back,8,nontarget,45,3,0,1,3,K,8,13,31,0,1182,25pct,NA,NA,NA,0,0,0,NA,NA,NA,NA,NA,NA,57
6.4.0,win,3/10/21,12:18:48,57,1,ratingSummary,10,ratingSummary,1,3,0,1,3,0,0,NA,0,0,0,25pct,NA,NA,NA,0,0,0,14,16,15,15,15,9,57
6.4.0,win,3/10/21,12:18:48,57,1,4back,11,start,3,4,0,1,4,,1,0,37,1,1115,25pct,NA,NA,NA,0,0,0,NA,NA,NA,NA,NA,NA,57
6.4.0,win,3/10/21,12:18:48,57,1,4back,11,start,4,4,0,1,4,,1,0,31,0,940,25pct,NA,NA,NA,0,0,0,NA,NA,NA,NA,NA,NA,57
6.4.0,win,3/10/21,12:18:48,57,1,4back,11,start,5,4,0,1,4,,1,0,37,1,821,25pct,NA,NA,NA,0,0,0,NA,NA,NA,NA,NA,NA,57
6.4.0,win,3/10/21,12:18:48,57,1,4back,11,start,6,4,0,1,4,,1,0,31,0,717,25pct,NA,NA,NA,0,0,0,NA,NA,NA,NA,NA,NA,57
6.4.0,win,3/10/21,12:18:48,57,1,4back,11,nontarget,8,4,0,1,4,P,12,5,37,1,653,25pct,NA,NA,NA,0,0,0,NA,NA,NA,NA,NA,NA,57
6.4.0,win,3/10/21,12:18:48,57,1,4back,11,nontarget,10,4,0,1,4,G,5,3,37,1,762,25pct,NA,NA,NA,0,0,0,NA,NA,NA,NA,NA,NA,57
6.4.0,win,3/10/21,12:18:48,57,1,4back,11,nontarget,12,4,0,1,4,H,6,14,37,1,745,25pct,NA,NA,NA,0,0,0,NA,NA,NA,NA,NA,NA,57
6.4.0,win,3/10/21,12:18:48,57,1,4back,11,nontarget,14,4,0,1,4,J,7,4,31,0,1171,25pct,NA,NA,NA,0,0,0,NA,NA,NA,NA,NA,NA,57
6.4.0,win,3/10/21,12:18:48,57,1,4back,11,nontarget,16,4,0,1,4,X,19,12,37,1,742,25pct,NA,NA,NA,0,0,0,NA,NA,NA,NA,NA,NA,57
6.4.0,win,3/10/21,12:18:48,57,1,4back,11,nontarget,18,4,0,1,4,V,17,5,31,0,935,25pct,NA,NA,NA,0,0,0,NA,NA,NA,NA,NA,NA,57
6.4.0,win,3/10/21,12:18:48,57,1,4back,11,nontarget,20,4,0,1,4,K,8,6,37,1,765,25pct,NA,NA,NA,0,0,0,NA,NA,NA,NA,NA,NA,57
6.4.0,win,3/10/21,12:18:48,57,1,4back,11,nontarget,22,4,0,1,4,D,3,7,31,0,1013,25pct,NA,NA,NA,0,0,0,NA,NA,NA,NA,NA,NA,57
6.4.0,win,3/10/21,12:18:48,57,1,4back,11,nontarget,24,4,0,1,4,B,1,19,37,1,952,25pct,NA,NA,NA,0,0,0,NA,NA,NA,NA,NA,NA,57
6.4.0,win,3/10/21,12:18:48,57,1,4back,11,target,26,4,0,1,4,V,17,17,37,0,951,25pct,NA,NA,NA,0,0,0,NA,NA,NA,NA,NA,NA,57
6.4.0,win,3/10/21,12:18:48,57,1,4back,11,target,28,4,0,1,4,K,8,8,37,0,898,25pct,NA,NA,NA,0,0,0,NA,NA,NA,NA,NA,NA,57
6.4.0,win,3/10/21,12:18:48,57,1,4back,11,nontarget,30,4,0,1,4,T,16,3,31,0,901,25pct,NA,NA,NA,0,0,0,NA,NA,NA,NA,NA,NA,57
6.4.0,win,3/10/21,12:18:48,57,1,4back,11,nontarget,32,4,0,1,4,T,16,1,31,0,880,25pct,NA,NA,NA,0,0,0,NA,NA,NA,NA,NA,NA,57
6.4.0,win,3/10/21,12:18:48,57,1,4back,11,target,34,4,0,1,4,V,17,17,31,1,1014,25pct,NA,NA,NA,0,0,0,NA,NA,NA,NA,NA,NA,57
6.4.0,win,3/10/21,12:18:48,57,1,4back,11,target,36,4,0,1,4,K,8,8,31,1,196,25pct,NA,NA,NA,0,0,0,NA,NA,NA,NA,NA,NA,57
6.4.0,win,3/10/21,12:18:48,57,1,4back,11,nontarget,38,4,0,1,4,W,18,16,37,1,1246,25pct,NA,NA,NA,0,0,0,NA,NA,NA,NA,NA,NA,57
6.4.0,win,3/10/21,12:18:48,57,1,4back,11,nontarget,40,4,0,1,4,K,8,16,31,0,588,25pct,NA,NA,NA,0,0,0,NA,NA,NA,NA,NA,NA,57
6.4.0,win,3/10/21,12:18:48,57,1,4back,11,target,42,4,0,1,4,V,17,17,31,1,916,25pct,NA,NA,NA,0,0,0,NA,NA,NA,NA,NA,NA,57
6.4.0,win,3/10/21,12:18:48,57,1,4back,11,nontarget,44,4,0,1,4,Z,20,8,37,1,815,25pct,NA,NA,NA,0,0,0,NA,NA,NA,NA,NA,NA,57
6.4.0,win,3/10/21,12:18:48,57,1,4back,11,nontarget,46,4,0,1,4,Z,20,18,37,1,878,25pct,NA,NA,NA,0,0,0,NA,NA,NA,NA,NA,NA,57
6.4.0,win,3/10/21,12:18:48,57,1,ratingSummary,13,ratingSummary,1,4,0,1,4,0,0,NA,0,0,0,25pct,NA,NA,NA,0,0,0,17,16,16,16,15,9,57
6.4.0,win,3/10/21,12:18:48,57,1,CognitiveEffortDiscounting_Practice,14,CogED_practice,1,4,0,2,2,blackframe.png,1,NA,16,0,4059,75pct,2,2,2,0,0,0,NA,NA,NA,NA,NA,NA,57
6.4.0,win,3/10/21,12:18:48,57,1,CognitiveEffortDiscounting_Practice,14,CogED_practice,3,4,0,2,2,blackframe.png,1,NA,25,0,8674,25pct,2,1,2,0,0,0,NA,NA,NA,NA,NA,NA,57
6.4.0,win,3/10/21,12:18:48,57,1,CognitiveEffortDiscounting_Practice,14,CogED_practice,5,4,0,2,2,blackframe.png,1,NA,25,0,5691,75pct,2,0.5,1,0,0,0,NA,NA,NA,NA,NA,NA,57
6.4.0,win,3/10/21,12:18:48,57,1,CognitiveEffortDiscounting_Practice,14,CogED_practice,7,4,0,2,2,blackframe.png,1,NA,16,0,2811,25pct,2,0.75,1,0,0,0,NA,NA,NA,NA,NA,NA,57
6.4.0,win,3/10/21,12:18:48,57,1,CognitiveEffortDiscounting_Practice,14,CogED_practice,9,4,0,2,2,blackframe.png,1,NA,16,0,1735,25pct,2,0.875,1,0,0,0,NA,NA,NA,NA,NA,NA,57
6.4.0,win,3/10/21,12:18:48,57,1,CognitiveEffortDiscounting_Practice,14,CogED_practice,11,4,0,2,2,blackframe.png,1,NA,25,0,1346,75pct,2,0.9375,1,0,0,0,NA,NA,NA,NA,NA,NA,57
6.4.0,win,3/10/21,12:18:48,57,1,CognitiveEffortDiscounting,15,CogED_N3_1,1,4,0,2,3,blackframe.png,1,NA,25,0,2541,75pct,2,2,1,0,0,2,NA,NA,NA,NA,NA,NA,57
6.4.0,win,3/10/21,12:18:48,57,1,CognitiveEffortDiscounting,15,CogED_N4_3,3,4,0,2,4,blackframe.png,1,NA,16,0,5831,75pct,4,4,4,0,0,2,NA,NA,NA,NA,NA,NA,57
6.4.0,win,3/10/21,12:18:48,57,1,CognitiveEffortDiscounting,15,CogED_N3_1,5,4,0,2,3,blackframe.png,1,NA,16,0,2772,75pct,1,2,3,0,0,2,NA,NA,NA,NA,NA,NA,57
6.4.0,win,3/10/21,12:18:48,57,1,CognitiveEffortDiscounting,15,CogED_N4_2,9,4,0,2,4,blackframe.png,1,NA,16,0,3299,25pct,3,3,1,0,0,2,NA,NA,NA,NA,NA,NA,57
6.4.0,win,3/10/21,12:18:48,57,1,CognitiveEffortDiscounting,15,CogED_N4_1,11,4,0,2,4,blackframe.png,1,NA,16,0,2490,25pct,2,2,1,0,0,2,NA,NA,NA,NA,NA,NA,57
6.4.0,win,3/10/21,12:18:48,57,1,CognitiveEffortDiscounting,15,CogED_N4_3,14,4,0,2,4,blackframe.png,1,NA,16,0,1408,25pct,4,2,1,0,0,2,NA,NA,NA,NA,NA,NA,57
6.4.0,win,3/10/21,12:18:48,57,1,CognitiveEffortDiscounting,15,CogED_N2_2,16,4,0,2,2,blackframe.png,1,NA,16,0,2417,25pct,3,3,1,0,0,2,NA,NA,NA,NA,NA,NA,57
6.4.0,win,3/10/21,12:18:48,57,1,CognitiveEffortDiscounting,15,CogED_N2_2,18,4,0,2,2,blackframe.png,1,NA,25,0,2086,25pct,1.5,3,2,0,0,2,NA,NA,NA,NA,NA,NA,57
6.4.0,win,3/10/21,12:18:48,57,1,CognitiveEffortDiscounting,15,CogED_N2_2,20,4,0,2,2,blackframe.png,1,NA,25,0,4052,75pct,2.25,3,1,0,0,2,NA,NA,NA,NA,NA,NA,57
6.4.0,win,3/10/21,12:18:48,57,1,CognitiveEffortDiscounting,15,CogED_N4_3,22,4,0,2,4,blackframe.png,1,NA,16,0,1890,25pct,4,3,1,0,0,2,NA,NA,NA,NA,NA,NA,57
6.4.0,win,3/10/21,12:18:48,57,1,CognitiveEffortDiscounting,15,CogED_N3_1,25,4,0,2,3,blackframe.png,1,NA,25,0,2188,75pct,1.5,2,1,0,0,2,NA,NA,NA,NA,NA,NA,57
6.4.0,win,3/10/21,12:18:48,57,1,CognitiveEffortDiscounting,15,CogED_N2_3,27,4,0,2,2,blackframe.png,1,NA,25,0,1609,75pct,4,4,1,0,0,2,NA,NA,NA,NA,NA,NA,57
6.4.0,win,3/10/21,12:18:48,57,1,CognitiveEffortDiscounting,15,CogED_N3_2,30,4,0,2,3,blackframe.png,1,NA,25,0,1552,75pct,3,3,1,0,0,2,NA,NA,NA,NA,NA,NA,57
6.4.0,win,3/10/21,12:18:48,57,1,CognitiveEffortDiscounting,15,CogED_N4_1,32,4,0,2,4,blackframe.png,1,NA,16,0,3516,25pct,1,2,1,0,0,2,NA,NA,NA,NA,NA,NA,57
6.4.0,win,3/10/21,12:18:48,57,1,CognitiveEffortDiscounting,15,CogED_N2_1,35,4,0,2,2,blackframe.png,1,NA,25,0,1114,75pct,2,2,1,0,0,1,NA,NA,NA,NA,NA,NA,57
6.4.0,win,3/10/21,12:18:48,57,1,CognitiveEffortDiscounting,15,CogED_N2_2,39,4,0,2,2,blackframe.png,1,NA,25,0,2097,25pct,1.875,3,2,0,0,1,NA,NA,NA,NA,NA,NA,57
6.4.0,win,3/10/21,12:18:48,57,1,CognitiveEffortDiscounting,15,CogED_N2_1,41,4,0,2,2,blackframe.png,1,NA,16,0,1871,75pct,1,2,2,0,0,0.5,NA,NA,NA,NA,NA,NA,57
6.4.0,win,3/10/21,12:18:48,57,1,CognitiveEffortDiscounting,15,CogED_N4_2,43,4,0,2,4,blackframe.png,1,NA,16,0,1854,75pct,1.5,3,4,0,0,0.5,NA,NA,NA,NA,NA,NA,57
6.4.0,win,3/10/21,12:18:48,57,1,CognitiveEffortDiscounting,15,CogED_N2_1,47,4,0,2,2,blackframe.png,1,NA,25,0,2584,25pct,1.5,2,2,0,0,0.25,NA,NA,NA,NA,NA,NA,57
6.4.0,win,3/10/21,12:18:48,57,1,CognitiveEffortDiscounting,15,CogED_N2_2,49,4,0,2,2,blackframe.png,1,NA,16,0,1970,75pct,2.0625,3,2,0,0,0.25,NA,NA,NA,NA,NA,NA,57
6.4.0,win,3/10/21,12:18:48,57,1,CognitiveEffortDiscounting,15,CogED_N2_3,53,4,0,2,2,blackframe.png,1,NA,25,0,1362,25pct,2,4,2,0,0,0.25,NA,NA,NA,NA,NA,NA,57
6.4.0,win,3/10/21,12:18:48,57,1,CognitiveEffortDiscounting,15,CogED_N3_2,55,4,0,2,3,blackframe.png,1,NA,25,0,1257,25pct,1.5,3,3,0,0,0.25,NA,NA,NA,NA,NA,NA,57
6.4.0,win,3/10/21,12:18:48,57,1,CognitiveEffortDiscounting,15,CogED_N3_3,58,4,0,2,3,blackframe.png,1,NA,16,0,3705,25pct,4,4,1,0,0,0.25,NA,NA,NA,NA,NA,NA,57
6.4.0,win,3/10/21,12:18:48,57,1,CognitiveEffortDiscounting,15,CogED_N3_2,60,4,0,2,3,blackframe.png,1,NA,25,0,1335,25pct,2.25,3,3,0,0,0.25,NA,NA,NA,NA,NA,NA,57
6.4.0,win,3/10/21,12:18:48,57,1,CognitiveEffortDiscounting,15,CogED_N3_1,63,4,0,2,3,blackframe.png,1,NA,16,0,1844,75pct,1.25,2,3,0,0,0.25,NA,NA,NA,NA,NA,NA,57
6.4.0,win,3/10/21,12:18:48,57,1,CognitiveEffortDiscounting,15,CogED_N2_3,66,4,0,2,2,blackframe.png,1,NA,16,0,1641,75pct,3,4,2,0,0,0.25,NA,NA,NA,NA,NA,NA,57
6.4.0,win,3/10/21,12:18:48,57,1,CognitiveEffortDiscounting,15,CogED_N3_3,68,4,0,2,3,blackframe.png,1,NA,16,0,1219,75pct,2,4,3,0,0,0.25,NA,NA,NA,NA,NA,NA,57
6.4.0,win,3/10/21,12:18:48,57,1,CognitiveEffortDiscounting,15,reminder,70,4,0,2,3,cog_ed_nbackintro2.htm,1,NA,57,0,23737,75pct,2,4,3,0,0,0.25,NA,NA,NA,NA,NA,NA,57
6.4.0,win,3/10/21,12:18:48,57,1,CognitiveEffortDiscounting,15,CogED_N4_3,72,4,0,2,4,blackframe.png,1,NA,16,0,5627,25pct,4,3.5,1,0,0,0.25,NA,NA,NA,NA,NA,NA,57
6.4.0,win,3/10/21,12:18:48,57,1,CognitiveEffortDiscounting,15,CogED_N3_1,74,4,0,2,3,blackframe.png,1,NA,16,0,2690,75pct,1.375,2,3,0,0,0.25,NA,NA,NA,NA,NA,NA,57
6.4.0,win,3/10/21,12:18:48,57,1,CognitiveEffortDiscounting,15,CogED_N3_1,76,4,0,2,3,blackframe.png,1,NA,25,0,1414,25pct,1.4375,2,3,0,0,0.25,NA,NA,NA,NA,NA,NA,57
6.4.0,win,3/10/21,12:18:48,57,1,CognitiveEffortDiscounting,15,CogED_N2_3,78,4,0,2,2,blackframe.png,1,NA,25,0,1138,25pct,3.5,4,2,0,0,0.25,NA,NA,NA,NA,NA,NA,57
6.4.0,win,3/10/21,12:18:48,57,1,CognitiveEffortDiscounting,15,CogED_N3_2,85,4,0,2,3,blackframe.png,1,NA,25,0,4974,25pct,2.625,3,3,0,0,0.25,NA,NA,NA,NA,NA,NA,57
6.4.0,win,3/10/21,12:18:48,57,1,CognitiveEffortDiscounting,15,CogED_N4_2,87,4,0,2,4,blackframe.png,1,NA,16,0,1255,75pct,2.25,3,4,0,0,0.25,NA,NA,NA,NA,NA,NA,57
6.4.0,win,3/10/21,12:18:48,57,1,CognitiveEffortDiscounting,15,CogED_N3_3,91,4,0,2,3,blackframe.png,1,NA,16,0,2324,75pct,3,4,3,0,0,0.25,NA,NA,NA,NA,NA,NA,57
6.4.0,win,3/10/21,12:18:48,57,1,CognitiveEffortDiscounting,15,CogED_N3_2,93,4,0,2,3,blackframe.png,1,NA,16,0,1296,75pct,2.8125,3,3,0,0,0.25,NA,NA,NA,NA,NA,NA,57
6.4.0,win,3/10/21,12:18:48,57,1,CognitiveEffortDiscounting,15,CogED_N2_1,96,4,0,2,2,blackframe.png,1,NA,25,0,1666,25pct,1.75,2,2,0,0,0.125,NA,NA,NA,NA,NA,NA,57
6.4.0,win,3/10/21,12:18:48,57,1,CognitiveEffortDiscounting,15,CogED_N2_2,100,4,0,2,2,blackframe.png,1,NA,25,0,1372,25pct,2.15625,3,2,0,0,0.125,NA,NA,NA,NA,NA,NA,57
6.4.0,win,3/10/21,12:18:48,57,1,CognitiveEffortDiscounting,15,CogED_N2_3,102,4,0,2,2,blackframe.png,1,NA,16,0,1569,75pct,3.75,4,2,0,0,0.125,NA,NA,NA,NA,NA,NA,57
6.4.0,win,3/10/21,12:18:48,57,1,CognitiveEffortDiscounting,15,CogED_N4_3,104,4,0,2,4,blackframe.png,1,NA,16,0,1209,25pct,4,3.75,1,0,0,0.125,NA,NA,NA,NA,NA,NA,57
6.4.0,win,3/10/21,12:18:48,57,1,CognitiveEffortDiscounting,15,CogED_N2_3,107,4,0,2,2,blackframe.png,1,NA,16,0,1757,75pct,3.875,4,2,0,0,0.125,NA,NA,NA,NA,NA,NA,57
6.4.0,win,3/10/21,12:18:48,57,1,CognitiveEffortDiscounting,15,CogED_N4_1,112,4,0,2,4,blackframe.png,1,NA,25,0,1589,25pct,0.5,2,4,0,0,0.125,NA,NA,NA,NA,NA,NA,57
6.4.0,win,3/10/21,12:18:48,57,1,CognitiveEffortDiscounting,15,CogED_N4_1,114,4,0,2,4,blackframe.png,1,NA,16,0,1201,75pct,0.75,2,4,0,0,0.125,NA,NA,NA,NA,NA,NA,57
6.4.0,win,3/10/21,12:18:48,57,1,CognitiveEffortDiscounting,15,CogED_N2_1,117,4,0,2,2,blackframe.png,1,NA,16,0,1378,75pct,1.875,2,2,0,0,0.0625,NA,NA,NA,NA,NA,NA,57
6.4.0,win,3/10/21,12:18:48,57,1,CognitiveEffortDiscounting,15,CogED_N3_2,119,4,0,2,3,blackframe.png,1,NA,25,0,1219,25pct,2.90625,3,3,0,0,0.0625,NA,NA,NA,NA,NA,NA,57
6.4.0,win,3/10/21,12:18:48,57,1,CognitiveEffortDiscounting,15,CogED_N4_3,121,4,0,2,4,blackframe.png,1,NA,16,0,1644,25pct,4,3.875,1,0,0,0.0625,NA,NA,NA,NA,NA,NA,57
6.4.0,win,3/10/21,12:18:48,57,1,CognitiveEffortDiscounting,15,CogED_N4_1,123,4,0,2,4,blackframe.png,1,NA,16,0,1506,75pct,0.875,2,4,0,0,0.0625,NA,NA,NA,NA,NA,NA,57
6.4.0,win,3/10/21,12:18:48,57,1,CognitiveEffortDiscounting,15,CogED_N4_2,126,4,0,2,4,blackframe.png,1,NA,16,0,1500,75pct,2.625,3,4,0,0,0.0625,NA,NA,NA,NA,NA,NA,57
6.4.0,win,3/10/21,12:18:48,57,1,CognitiveEffortDiscounting,15,CogED_N4_2,128,4,0,2,4,blackframe.png,1,NA,16,0,1471,75pct,2.8125,3,4,0,0,0.0625,NA,NA,NA,NA,NA,NA,57
6.4.0,win,3/10/21,12:18:48,57,1,CognitiveEffortDiscounting,15,CogED_N2_1,130,4,0,2,2,blackframe.png,1,NA,25,0,889,25pct,1.9375,2,2,0,0,0.03125,NA,NA,NA,NA,NA,NA,57
6.4.0,win,3/10/21,12:18:48,57,1,CognitiveEffortDiscounting,15,CogED_N3_3,132,4,0,2,3,blackframe.png,1,NA,25,0,1141,25pct,3.5,4,3,0,0,0.03125,NA,NA,NA,NA,NA,NA,57
6.4.0,win,3/10/21,12:18:48,57,1,CognitiveEffortDiscounting,15,CogED_N4_1,134,4,0,2,4,blackframe.png,1,NA,25,0,993,25pct,0.9375,2,4,0,0,0.03125,NA,NA,NA,NA,NA,NA,57
6.4.0,win,3/10/21,12:18:48,57,1,CognitiveEffortDiscounting,15,CogED_N3_3,136,4,0,2,3,blackframe.png,1,NA,16,0,992,75pct,3.75,4,3,0,0,0.03125,NA,NA,NA,NA,NA,NA,57
6.4.0,win,3/10/21,12:18:48,57,1,CognitiveEffortDiscounting,15,CogED_N4_2,138,4,0,2,4,blackframe.png,1,NA,16,0,1168,75pct,2.90625,3,4,0,0,0.03125,NA,NA,NA,NA,NA,NA,57
6.4.0,win,3/10/21,12:18:48,57,1,CognitiveEffortDiscounting,15,CogED_N3_3,144,4,0,2,3,blackframe.png,1,NA,25,0,1249,25pct,3.875,4,3,0,0,0.03125,NA,NA,NA,NA,NA,NA,57
6.4.0,win,3/10/21,12:18:48,57,1,phase3,17,start,3,4,1,3,3,,1,0,0,0,2000,,NA,NA,NA,3,0,0.03125,NA,NA,NA,NA,NA,NA,57
6.4.0,win,3/10/21,12:18:48,57,1,phase3,17,start,4,4,1,3,3,,1,0,37,1,1066,,NA,NA,NA,3,0,0.03125,NA,NA,NA,NA,NA,NA,57
6.4.0,win,3/10/21,12:18:48,57,1,phase3,17,start,5,4,1,3,3,,1,0,37,1,1091,,NA,NA,NA,3,0,0.03125,NA,NA,NA,NA,NA,NA,57
6.4.0,win,3/10/21,12:18:48,57,1,phase3,17,nontarget,7,4,1,3,3,S,15,4,0,0,2000,,NA,NA,NA,3,0,0.03125,NA,NA,NA,NA,NA,NA,57
6.4.0,win,3/10/21,12:18:48,57,1,phase3,17,target,9,4,1,3,3,W,18,18,37,0,956,,NA,NA,NA,3,0,0.03125,NA,NA,NA,NA,NA,NA,57
6.4.0,win,3/10/21,12:18:48,57,1,phase3,17,target,11,4,1,3,3,V,17,17,0,0,2000,,NA,NA,NA,3,0,0.03125,NA,NA,NA,NA,NA,NA,57
6.4.0,win,3/10/21,12:18:48,57,1,phase3,17,nontarget,13,4,1,3,3,C,2,15,37,1,524,,NA,NA,NA,3,0,0.03125,NA,NA,NA,NA,NA,NA,57
6.4.0,win,3/10/21,12:18:48,57,1,phase3,17,target,15,4,1,3,3,W,18,18,0,0,2000,,NA,NA,NA,3,0,0.03125,NA,NA,NA,NA,NA,NA,57
6.4.0,win,3/10/21,12:18:48,57,1,phase3,17,nontarget,17,4,1,3,3,W,18,17,37,1,732,,NA,NA,NA,3,0,0.03125,NA,NA,NA,NA,NA,NA,57
6.4.0,win,3/10/21,12:18:48,57,1,phase3,17,nontarget,19,4,1,3,3,M,10,2,37,1,1002,,NA,NA,NA,3,0,0.03125,NA,NA,NA,NA,NA,NA,57
6.4.0,win,3/10/21,12:18:48,57,1,phase3,17,nontarget,21,4,1,3,3,X,19,18,0,0,2000,,NA,NA,NA,3,0,0.03125,NA,NA,NA,NA,NA,NA,57
6.4.0,win,3/10/21,12:18:48,57,1,phase3,17,nontarget,23,4,1,3,3,M,10,18,37,1,858,,NA,NA,NA,3,0,0.03125,NA,NA,NA,NA,NA,NA,57
6.4.0,win,3/10/21,12:18:48,57,1,phase3,17,nontarget,25,4,1,3,3,T,16,10,31,0,1743,,NA,NA,NA,3,0,0.03125,NA,NA,NA,NA,NA,NA,57
6.4.0,win,3/10/21,12:18:48,57,1,phase3,17,nontarget,27,4,1,3,3,V,17,19,31,0,1673,,NA,NA,NA,3,0,0.03125,NA,NA,NA,NA,NA,NA,57
6.4.0,win,3/10/21,12:18:48,57,1,phase3,17,nontarget,29,4,1,3,3,L,9,10,0,0,2000,,NA,NA,NA,3,0,0.03125,NA,NA,NA,NA,NA,NA,57
6.4.0,win,3/10/21,12:18:48,57,1,phase3,17,target,31,4,1,3,3,T,16,16,37,0,1534,,NA,NA,NA,3,0,0.03125,NA,NA,NA,NA,NA,NA,57
6.4.0,win,3/10/21,12:18:48,57,1,phase3,17,nontarget,33,4,1,3,3,B,1,17,31,0,1460,,NA,NA,NA,3,0,0.03125,NA,NA,NA,NA,NA,NA,57
6.4.0,win,3/10/21,12:18:48,57,1,phase3,17,nontarget,35,4,1,3,3,W,18,9,0,0,2000,,NA,NA,NA,3,0,0.03125,NA,NA,NA,NA,NA,NA,57
6.4.0,win,3/10/21,12:18:48,57,1,phase3,17,nontarget,37,4,1,3,3,R,14,16,0,0,2000,,NA,NA,NA,3,0,0.03125,NA,NA,NA,NA,NA,NA,57
6.4.0,win,3/10/21,12:18:48,57,1,phase3,17,nontarget,39,4,1,3,3,T,16,1,37,1,580,,NA,NA,NA,3,0,0.03125,NA,NA,NA,NA,NA,NA,57
6.4.0,win,3/10/21,12:18:48,57,1,phase3,17,nontarget,41,4,1,3,3,Q,13,18,37,1,782,,NA,NA,NA,3,0,0.03125,NA,NA,NA,NA,NA,NA,57
6.4.0,win,3/10/21,12:18:48,57,1,phase3,17,nontarget,43,4,1,3,3,B,1,14,31,0,706,,NA,NA,NA,3,0,0.03125,NA,NA,NA,NA,NA,NA,57
6.4.0,win,3/10/21,12:18:48,57,1,phase3,17,target,45,4,1,3,3,T,16,16,37,0,746,,NA,NA,NA,3,0,0.03125,NA,NA,NA,NA,NA,NA,57
6.4.0,win,3/10/21,12:18:48,57,1,finish,18,finish,1,4,1,3,3,Thank you!,1,16,57,0,3476,,NA,NA,NA,3,3,0.03125,NA,NA,NA,NA,NA,NA,57
6.4.0,win,3/10/21,12:36:02,9,1,1back,2,start,3,1,0,1,1,,1,0,0,0,2000,25pct,NA,NA,NA,0,0,0,NA,NA,NA,NA,NA,NA,9
6.4.0,win,3/10/21,12:36:02,9,1,1back,2,nontarget,5,1,0,1,1,R,14,2,37,1,996,25pct,NA,NA,NA,0,0,0,NA,NA,NA,NA,NA,NA,9
6.4.0,win,3/10/21,12:36:02,9,1,1back,2,nontarget,7,1,0,1,1,Q,13,14,37,1,774,25pct,NA,NA,NA,0,0,0,NA,NA,NA,NA,NA,NA,9
6.4.0,win,3/10/21,12:36:02,9,1,1back,2,nontarget,9,1,0,1,1,J,7,13,37,1,978,25pct,NA,NA,NA,0,0,0,NA,NA,NA,NA,NA,NA,9
6.4.0,win,3/10/21,12:36:02,9,1,1back,2,nontarget,11,1,0,1,1,C,2,7,37,1,1497,25pct,NA,NA,NA,0,0,0,NA,NA,NA,NA,NA,NA,9
6.4.0,win,3/10/21,12:36:02,9,1,1back,2,target,13,1,0,1,1,C,2,2,31,1,940,25pct,NA,NA,NA,0,0,0,NA,NA,NA,NA,NA,NA,9
6.4.0,win,3/10/21,12:36:02,9,1,1back,2,nontarget,15,1,0,1,1,V,17,2,37,1,564,25pct,NA,NA,NA,0,0,0,NA,NA,NA,NA,NA,NA,9
6.4.0,win,3/10/21,12:36:02,9,1,1back,2,target,17,1,0,1,1,V,17,17,31,1,1044,25pct,NA,NA,NA,0,0,0,NA,NA,NA,NA,NA,NA,9
6.4.0,win,3/10/21,12:36:02,9,1,1back,2,nontarget,19,1,0,1,1,X,19,17,37,1,808,25pct,NA,NA,NA,0,0,0,NA,NA,NA,NA,NA,NA,9
6.4.0,win,3/10/21,12:36:02,9,1,1back,2,target,21,1,0,1,1,X,19,19,31,1,1517,25pct,NA,NA,NA,0,0,0,NA,NA,NA,NA,NA,NA,9
6.4.0,win,3/10/21,12:36:02,9,1,1back,2,target,23,1,0,1,1,X,19,19,31,1,642,25pct,NA,NA,NA,0,0,0,NA,NA,NA,NA,NA,NA,9
6.4.0,win,3/10/21,12:36:02,9,1,1back,2,nontarget,25,1,0,1,1,T,16,19,37,1,566,25pct,NA,NA,NA,0,0,0,NA,NA,NA,NA,NA,NA,9
6.4.0,win,3/10/21,12:36:02,9,1,1back,2,nontarget,27,1,0,1,1,Z,20,16,37,1,1086,25pct,NA,NA,NA,0,0,0,NA,NA,NA,NA,NA,NA,9
6.4.0,win,3/10/21,12:36:02,9,1,1back,2,nontarget,29,1,0,1,1,X,19,20,37,1,867,25pct,NA,NA,NA,0,0,0,NA,NA,NA,NA,NA,NA,9
6.4.0,win,3/10/21,12:36:02,9,1,1back,2,target,31,1,0,1,1,X,19,19,37,0,1032,25pct,NA,NA,NA,0,0,0,NA,NA,NA,NA,NA,NA,9
6.4.0,win,3/10/21,12:36:02,9,1,1back,2,nontarget,33,1,0,1,1,C,2,19,37,1,1048,25pct,NA,NA,NA,0,0,0,NA,NA,NA,NA,NA,NA,9
6.4.0,win,3/10/21,12:36:02,9,1,1back,2,nontarget,35,1,0,1,1,J,7,2,37,1,857,25pct,NA,NA,NA,0,0,0,NA,NA,NA,NA,NA,NA,9
6.4.0,win,3/10/21,12:36:02,9,1,1back,2,nontarget,37,1,0,1,1,B,1,7,37,1,733,25pct,NA,NA,NA,0,0,0,NA,NA,NA,NA,NA,NA,9
6.4.0,win,3/10/21,12:36:02,9,1,1back,2,nontarget,39,1,0,1,1,T,16,1,37,1,1138,25pct,NA,NA,NA,0,0,0,NA,NA,NA,NA,NA,NA,9
6.4.0,win,3/10/21,12:36:02,9,1,1back,2,nontarget,41,1,0,1,1,X,19,16,37,1,790,25pct,NA,NA,NA,0,0,0,NA,NA,NA,NA,NA,NA,9
6.4.0,win,3/10/21,12:36:02,9,1,1back,2,nontarget,43,1,0,1,1,J,7,19,37,1,797,25pct,NA,NA,NA,0,0,0,NA,NA,NA,NA,NA,NA,9
6.4.0,win,3/10/21,12:36:02,9,1,ratingSummary,4,ratingSummary,1,1,0,1,1,0,0,NA,0,0,0,25pct,NA,NA,NA,0,0,0,7,6,6,15,8,10,9
6.4.0,win,3/10/21,12:36:02,9,1,2back,5,start,3,2,0,1,2,,1,0,0,0,2000,25pct,NA,NA,NA,0,0,0,NA,NA,NA,NA,NA,NA,9
6.4.0,win,3/10/21,12:36:02,9,1,2back,5,start,4,2,0,1,2,,1,0,37,1,955,25pct,NA,NA,NA,0,0,0,NA,NA,NA,NA,NA,NA,9
6.4.0,win,3/10/21,12:36:02,9,1,2back,5,nontarget,6,2,0,1,2,G,5,15,37,1,734,25pct,NA,NA,NA,0,0,0,NA,NA,NA,NA,NA,NA,9
6.4.0,win,3/10/21,12:36:02,9,1,2back,5,nontarget,8,2,0,1,2,W,18,9,37,1,745,25pct,NA,NA,NA,0,0,0,NA,NA,NA,NA,NA,NA,9
6.4.0,win,3/10/21,12:36:02,9,1,2back,5,nontarget,10,2,0,1,2,D,3,5,37,1,766,25pct,NA,NA,NA,0,0,0,NA,NA,NA,NA,NA,NA,9
6.4.0,win,3/10/21,12:36:02,9,1,2back,5,nontarget,12,2,0,1,2,Q,13,18,37,1,693,25pct,NA,NA,NA,0,0,0,NA,NA,NA,NA,NA,NA,9
6.4.0,win,3/10/21,12:36:02,9,1,2back,5,nontarget,14,2,0,1,2,K,8,3,37,1,834,25pct,NA,NA,NA,0,0,0,NA,NA,NA,NA,NA,NA,9
6.4.0,win,3/10/21,12:36:02,9,1,2back,5,target,16,2,0,1,2,Q,13,13,31,1,1922,25pct,NA,NA,NA,0,0,0,NA,NA,NA,NA,NA,NA,9
6.4.0,win,3/10/21,12:36:02,9,1,2back,5,target,18,2,0,1,2,K,8,8,31,1,1462,25pct,NA,NA,NA,0,0,0,NA,NA,NA,NA,NA,NA,9
6.4.0,win,3/10/21,12:36:02,9,1,2back,5,nontarget,20,2,0,1,2,W,18,13,37,1,514,25pct,NA,NA,NA,0,0,0,NA,NA,NA,NA,NA,NA,9
6.4.0,win,3/10/21,12:36:02,9,1,2back,5,target,22,2,0,1,2,K,8,8,31,1,798,25pct,NA,NA,NA,0,0,0,NA,NA,NA,NA,NA,NA,9
6.4.0,win,3/10/21,12:36:02,9,1,2back,5,nontarget,24,2,0,1,2,P,12,18,37,1,690,25pct,NA,NA,NA,0,0,0,NA,NA,NA,NA,NA,NA,9
6.4.0,win,3/10/21,12:36:02,9,1,2back,5,nontarget,26,2,0,1,2,T,16,8,37,1,1460,25pct,NA,NA,NA,0,0,0,NA,NA,NA,NA,NA,NA,9
6.4.0,win,3/10/21,12:36:02,9,1,2back,5,nontarget,28,2,0,1,2,M,10,12,37,1,761,25pct,NA,NA,NA,0,0,0,NA,NA,NA,NA,NA,NA,9
6.4.0,win,3/10/21,12:36:02,9,1,2back,5,nontarget,30,2,0,1,2,L,9,16,37,1,662,25pct,NA,NA,NA,0,0,0,NA,NA,NA,NA,NA,NA,9
6.4.0,win,3/10/21,12:36:02,9,1,2back,5,nontarget,32,2,0,1,2,T,16,10,37,1,1275,25pct,NA,NA,NA,0,0,0,NA,NA,NA,NA,NA,NA,9
6.4.0,win,3/10/21,12:36:02,9,1,2back,5,nontarget,34,2,0,1,2,V,17,9,37,1,905,25pct,NA,NA,NA,0,0,0,NA,NA,NA,NA,NA,NA,9
6.4.0,win,3/10/21,12:36:02,9,1,2back,5,nontarget,36,2,0,1,2,B,1,16,37,1,682,25pct,NA,NA,NA,0,0,0,NA,NA,NA,NA,NA,NA,9
6.4.0,win,3/10/21,12:36:02,9,1,2back,5,nontarget,38,2,0,1,2,L,9,17,37,1,1088,25pct,NA,NA,NA,0,0,0,NA,NA,NA,NA,NA,NA,9
6.4.0,win,3/10/21,12:36:02,9,1,2back,5,target,40,2,0,1,2,B,1,1,31,1,1716,25pct,NA,NA,NA,0,0,0,NA,NA,NA,NA,NA,NA,9
6.4.0,win,3/10/21,12:36:02,9,1,2back,5,target,42,2,0,1,2,L,9,9,31,1,752,25pct,NA,NA,NA,0,0,0,NA,NA,NA,NA,NA,NA,9
6.4.0,win,3/10/21,12:36:02,9,1,2back,5,nontarget,44,2,0,1,2,F,4,1,37,1,750,25pct,NA,NA,NA,0,0,0,NA,NA,NA,NA,NA,NA,9
6.4.0,win,3/10/21,12:36:02,9,1,ratingSummary,7,ratingSummary,1,2,0,1,2,0,0,NA,0,0,0,25pct,NA,NA,NA,0,0,0,14,5,9,20,14,14,9
6.4.0,win,3/10/21,12:36:02,9,1,3back,8,start,3,3,0,1,3,,1,0,0,0,2000,25pct,NA,NA,NA,0,0,0,NA,NA,NA,NA,NA,NA,9
6.4.0,win,3/10/21,12:36:02,9,1,3back,8,start,4,3,0,1,3,,1,0,37,1,1163,25pct,NA,NA,NA,0,0,0,NA,NA,NA,NA,NA,NA,9
6.4.0,win,3/10/21,12:36:02,9,1,3back,8,start,5,3,0,1,3,,1,0,37,1,1551,25pct,NA,NA,NA,0,0,0,NA,NA,NA,NA,NA,NA,9
6.4.0,win,3/10/21,12:36:02,9,1,3back,8,nontarget,7,3,0,1,3,H,6,8,37,1,752,25pct,NA,NA,NA,0,0,0,NA,NA,NA,NA,NA,NA,9
6.4.0,win,3/10/21,12:36:02,9,1,3back,8,target,9,3,0,1,3,N,11,11,37,0,625,25pct,NA,NA,NA,0,0,0,NA,NA,NA,NA,NA,NA,9
6.4.0,win,3/10/21,12:36:02,9,1,3back,8,nontarget,11,3,0,1,3,F,4,2,37,1,1475,25pct,NA,NA,NA,0,0,0,NA,NA,NA,NA,NA,NA,9
6.4.0,win,3/10/21,12:36:02,9,1,3back,8,nontarget,13,3,0,1,3,X,19,6,37,1,1454,25pct,NA,NA,NA,0,0,0,NA,NA,NA,NA,NA,NA,9
6.4.0,win,3/10/21,12:36:02,9,1,3back,8,target,15,3,0,1,3,N,11,11,31,1,1914,25pct,NA,NA,NA,0,0,0,NA,NA,NA,NA,NA,NA,9
6.4.0,win,3/10/21,12:36:02,9,1,3back,8,nontarget,17,3,0,1,3,P,12,4,37,1,1001,25pct,NA,NA,NA,0,0,0,NA,NA,NA,NA,NA,NA,9
6.4.0,win,3/10/21,12:36:02,9,1,3back,8,nontarget,19,3,0,1,3,T,16,19,31,0,1549,25pct,NA,NA,NA,0,0,0,NA,NA,NA,NA,NA,NA,9
6.4.0,win,3/10/21,12:36:02,9,1,3back,8,nontarget,21,3,0,1,3,J,7,11,37,1,1341,25pct,NA,NA,NA,0,0,0,NA,NA,NA,NA,NA,NA,9
6.4.0,win,3/10/21,12:36:02,9,1,3back,8,nontarget,23,3,0,1,3,D,3,12,37,1,1071,25pct,NA,NA,NA,0,0,0,NA,NA,NA,NA,NA,NA,9
6.4.0,win,3/10/21,12:36:02,9,1,3back,8,target,25,3,0,1,3,T,16,16,31,1,1190,25pct,NA,NA,NA,0,0,0,NA,NA,NA,NA,NA,NA,9
6.4.0,win,3/10/21,12:36:02,9,1,3back,8,target,27,3,0,1,3,J,7,7,31,1,1568,25pct,NA,NA,NA,0,0,0,NA,NA,NA,NA,NA,NA,9
6.4.0,win,3/10/21,12:36:02,9,1,3back,8,nontarget,29,3,0,1,3,H,6,3,37,1,1280,25pct,NA,NA,NA,0,0,0,NA,NA,NA,NA,NA,NA,9
6.4.0,win,3/10/21,12:36:02,9,1,3back,8,nontarget,31,3,0,1,3,H,6,16,31,0,1554,25pct,NA,NA,NA,0,0,0,NA,NA,NA,NA,NA,NA,9
6.4.0,win,3/10/21,12:36:02,9,1,3back,8,target,33,3,0,1,3,J,7,7,37,0,1514,25pct,NA,NA,NA,0,0,0,NA,NA,NA,NA,NA,NA,9
6.4.0,win,3/10/21,12:36:02,9,1,3back,8,nontarget,35,3,0,1,3,T,16,6,37,1,1271,25pct,NA,NA,NA,0,0,0,NA,NA,NA,NA,NA,NA,9
6.4.0,win,3/10/21,12:36:02,9,1,3back,8,nontarget,37,3,0,1,3,N,11,6,37,1,909,25pct,NA,NA,NA,0,0,0,NA,NA,NA,NA,NA,NA,9
6.4.0,win,3/10/21,12:36:02,9,1,3back,8,nontarget,39,3,0,1,3,N,11,7,31,0,1081,25pct,NA,NA,NA,0,0,0,NA,NA,NA,NA,NA,NA,9
6.4.0,win,3/10/21,12:36:02,9,1,3back,8,nontarget,41,3,0,1,3,J,7,16,31,0,1182,25pct,NA,NA,NA,0,0,0,NA,NA,NA,NA,NA,NA,9
6.4.0,win,3/10/21,12:36:02,9,1,3back,8,nontarget,43,3,0,1,3,D,3,11,37,1,987,25pct,NA,NA,NA,0,0,0,NA,NA,NA,NA,NA,NA,9
6.4.0,win,3/10/21,12:36:02,9,1,3back,8,nontarget,45,3,0,1,3,L,9,11,31,0,893,25pct,NA,NA,NA,0,0,0,NA,NA,NA,NA,NA,NA,9
6.4.0,win,3/10/21,12:36:02,9,1,ratingSummary,10,ratingSummary,1,3,0,1,3,0,0,NA,0,0,0,25pct,NA,NA,NA,0,0,0,18,2,8,10,16,16,9
6.4.0,win,3/10/21,12:36:02,9,1,4back,11,start,3,4,0,1,4,,1,0,37,1,1872,25pct,NA,NA,NA,0,0,0,NA,NA,NA,NA,NA,NA,9
6.4.0,win,3/10/21,12:36:02,9,1,4back,11,start,4,4,0,1,4,,1,0,37,1,1393,25pct,NA,NA,NA,0,0,0,NA,NA,NA,NA,NA,NA,9
6.4.0,win,3/10/21,12:36:02,9,1,4back,11,start,5,4,0,1,4,,1,0,37,1,907,25pct,NA,NA,NA,0,0,0,NA,NA,NA,NA,NA,NA,9
6.4.0,win,3/10/21,12:36:02,9,1,4back,11,start,6,4,0,1,4,,1,0,37,1,719,25pct,NA,NA,NA,0,0,0,NA,NA,NA,NA,NA,NA,9
6.4.0,win,3/10/21,12:36:02,9,1,4back,11,nontarget,8,4,0,1,4,B,1,5,37,1,670,25pct,NA,NA,NA,0,0,0,NA,NA,NA,NA,NA,NA,9
6.4.0,win,3/10/21,12:36:02,9,1,4back,11,target,10,4,0,1,4,C,2,2,37,0,1766,25pct,NA,NA,NA,0,0,0,NA,NA,NA,NA,NA,NA,9
6.4.0,win,3/10/21,12:36:02,9,1,4back,11,nontarget,12,4,0,1,4,R,14,11,37,1,986,25pct,NA,NA,NA,0,0,0,NA,NA,NA,NA,NA,NA,9
6.4.0,win,3/10/21,12:36:02,9,1,4back,11,nontarget,14,4,0,1,4,C,2,4,31,0,1634,25pct,NA,NA,NA,0,0,0,NA,NA,NA,NA,NA,NA,9
6.4.0,win,3/10/21,12:36:02,9,1,4back,11,nontarget,16,4,0,1,4,X,19,1,37,1,818,25pct,NA,NA,NA,0,0,0,NA,NA,NA,NA,NA,NA,9
6.4.0,win,3/10/21,12:36:02,9,1,4back,11,nontarget,18,4,0,1,4,H,6,2,37,1,895,25pct,NA,NA,NA,0,0,0,NA,NA,NA,NA,NA,NA,9
6.4.0,win,3/10/21,12:36:02,9,1,4back,11,target,20,4,0,1,4,R,14,14,31,1,1260,25pct,NA,NA,NA,0,0,0,NA,NA,NA,NA,NA,NA,9
6.4.0,win,3/10/21,12:36:02,9,1,4back,11,nontarget,22,4,0,1,4,D,3,2,37,1,1912,25pct,NA,NA,NA,0,0,0,NA,NA,NA,NA,NA,NA,9
6.4.0,win,3/10/21,12:36:02,9,1,4back,11,nontarget,24,4,0,1,4,W,18,19,0,0,2000,25pct,NA,NA,NA,0,0,0,NA,NA,NA,NA,NA,NA,9
6.4.0,win,3/10/21,12:36:02,9,1,4back,11,nontarget,26,4,0,1,4,F,4,6,37,1,1002,25pct,NA,NA,NA,0,0,0,NA,NA,NA,NA,NA,NA,9
6.4.0,win,3/10/21,12:36:02,9,1,4back,11,nontarget,28,4,0,1,4,Z,20,14,0,0,2000,25pct,NA,NA,NA,0,0,0,NA,NA,NA,NA,NA,NA,9
6.4.0,win,3/10/21,12:36:02,9,1,4back,11,target,30,4,0,1,4,D,3,3,37,0,632,25pct,NA,NA,NA,0,0,0,NA,NA,NA,NA,NA,NA,9
6.4.0,win,3/10/21,12:36:02,9,1,4back,11,nontarget,32,4,0,1,4,L,9,18,37,1,1133,25pct,NA,NA,NA,0,0,0,NA,NA,NA,NA,NA,NA,9
6.4.0,win,3/10/21,12:36:02,9,1,4back,11,nontarget,34,4,0,1,4,G,5,4,37,1,696,25pct,NA,NA,NA,0,0,0,NA,NA,NA,NA,NA,NA,9
6.4.0,win,3/10/21,12:36:02,9,1,4back,11,nontarget,36,4,0,1,4,D,3,20,37,1,1899,25pct,NA,NA,NA,0,0,0,NA,NA,NA,NA,NA,NA,9
6.4.0,win,3/10/21,12:36:02,9,1,4back,11,nontarget,38,4,0,1,4,Z,20,3,0,0,2000,25pct,NA,NA,NA,0,0,0,NA,NA,NA,NA,NA,NA,9
6.4.0,win,3/10/21,12:36:02,9,1,4back,11,target,40,4,0,1,4,L,9,9,37,0,1438,25pct,NA,NA,NA,0,0,0,NA,NA,NA,NA,NA,NA,9
6.4.0,win,3/10/21,12:36:02,9,1,4back,11,nontarget,42,4,0,1,4,P,12,5,37,1,1141,25pct,NA,NA,NA,0,0,0,NA,NA,NA,NA,NA,NA,9
6.4.0,win,3/10/21,12:36:02,9,1,4back,11,target,44,4,0,1,4,D,3,3,31,1,1100,25pct,NA,NA,NA,0,0,0,NA,NA,NA,NA,NA,NA,9
6.4.0,win,3/10/21,12:36:02,9,1,4back,11,nontarget,46,4,0,1,4,X,19,20,37,1,712,25pct,NA,NA,NA,0,0,0,NA,NA,NA,NA,NA,NA,9
6.4.0,win,3/10/21,12:36:02,9,1,ratingSummary,13,ratingSummary,1,4,0,1,4,0,0,NA,0,0,0,25pct,NA,NA,NA,0,0,0,21,3,18,5,13,21,9
6.4.0,win,3/10/21,12:36:02,9,1,CognitiveEffortDiscounting_Practice,14,CogED_practice,1,4,0,2,2,blackframe.png,1,NA,25,0,2544,75pct,2,2,1,0,0,0,NA,NA,NA,NA,NA,NA,9
6.4.0,win,3/10/21,12:36:02,9,1,CognitiveEffortDiscounting_Practice,14,CogED_practice,3,4,0,2,2,blackframe.png,1,NA,25,0,2040,25pct,1,2,2,0,0,0,NA,NA,NA,NA,NA,NA,9
6.4.0,win,3/10/21,12:36:02,9,1,CognitiveEffortDiscounting_Practice,14,CogED_practice,5,4,0,2,2,blackframe.png,1,NA,25,0,2111,75pct,1.5,2,1,0,0,0,NA,NA,NA,NA,NA,NA,9
6.4.0,win,3/10/21,12:36:02,9,1,CognitiveEffortDiscounting_Practice,14,CogED_practice,7,4,0,2,2,blackframe.png,1,NA,25,0,1912,25pct,1.25,2,2,0,0,0,NA,NA,NA,NA,NA,NA,9
6.4.0,win,3/10/21,12:36:02,9,1,CognitiveEffortDiscounting_Practice,14,CogED_practice,9,4,0,2,2,blackframe.png,1,NA,25,0,1962,25pct,1.375,2,2,0,0,0,NA,NA,NA,NA,NA,NA,9
6.4.0,win,3/10/21,12:36:02,9,1,CognitiveEffortDiscounting_Practice,14,CogED_practice,11,4,0,2,2,blackframe.png,1,NA,16,0,1752,75pct,1.4375,2,2,0,0,0,NA,NA,NA,NA,NA,NA,9
6.4.0,win,3/10/21,12:36:02,9,1,CognitiveEffortDiscounting,15,CogED_N4_3,1,4,0,2,4,blackframe.png,1,NA,25,0,1367,75pct,4,4,1,0,0,2,NA,NA,NA,NA,NA,NA,9
6.4.0,win,3/10/21,12:36:02,9,1,CognitiveEffortDiscounting,15,CogED_N3_3,3,4,0,2,3,blackframe.png,1,NA,25,0,1568,75pct,4,4,1,0,0,2,NA,NA,NA,NA,NA,NA,9
6.4.0,win,3/10/21,12:36:02,9,1,CognitiveEffortDiscounting,15,CogED_N3_1,7,4,0,2,3,blackframe.png,1,NA,16,0,1539,25pct,2,2,1,0,0,2,NA,NA,NA,NA,NA,NA,9
6.4.0,win,3/10/21,12:36:02,9,1,CognitiveEffortDiscounting,15,CogED_N4_2,9,4,0,2,4,blackframe.png,1,NA,16,0,1250,25pct,3,3,1,0,0,2,NA,NA,NA,NA,NA,NA,9
6.4.0,win,3/10/21,12:36:02,9,1,CognitiveEffortDiscounting,15,CogED_N3_1,13,4,0,2,3,blackframe.png,1,NA,16,0,1728,25pct,1,2,1,0,0,2,NA,NA,NA,NA,NA,NA,9
6.4.0,win,3/10/21,12:36:02,9,1,CognitiveEffortDiscounting,15,CogED_N4_1,15,4,0,2,4,blackframe.png,1,NA,16,0,1363,25pct,2,2,1,0,0,2,NA,NA,NA,NA,NA,NA,9
6.4.0,win,3/10/21,12:36:02,9,1,CognitiveEffortDiscounting,15,CogED_N2_3,17,4,0,2,2,blackframe.png,1,NA,25,0,1372,75pct,4,4,1,0,0,2,NA,NA,NA,NA,NA,NA,9
6.4.0,win,3/10/21,12:36:02,9,1,CognitiveEffortDiscounting,15,CogED_N4_3,23,4,0,2,4,blackframe.png,1,NA,25,0,1529,75pct,2,4,1,0,0,2,NA,NA,NA,NA,NA,NA,9
6.4.0,win,3/10/21,12:36:02,9,1,CognitiveEffortDiscounting,15,CogED_N4_2,26,4,0,2,4,blackframe.png,1,NA,16,0,1554,25pct,1.5,3,1,0,0,2,NA,NA,NA,NA,NA,NA,9
6.4.0,win,3/10/21,12:36:02,9,1,CognitiveEffortDiscounting,15,CogED_N2_2,28,4,0,2,2,blackframe.png,1,NA,25,0,1198,75pct,3,3,1,0,0,2,NA,NA,NA,NA,NA,NA,9
6.4.0,win,3/10/21,12:36:02,9,1,CognitiveEffortDiscounting,15,CogED_N4_1,30,4,0,2,4,blackframe.png,1,NA,25,0,1371,75pct,1,2,1,0,0,2,NA,NA,NA,NA,NA,NA,9
6.4.0,win,3/10/21,12:36:02,9,1,CognitiveEffortDiscounting,15,CogED_N2_1,34,4,0,2,2,blackframe.png,1,NA,25,0,1569,75pct,2,2,1,0,0,1,NA,NA,NA,NA,NA,NA,9
6.4.0,win,3/10/21,12:36:02,9,1,CognitiveEffortDiscounting,15,CogED_N2_3,36,4,0,2,2,blackframe.png,1,NA,16,0,1445,25pct,2,4,1,0,0,1,NA,NA,NA,NA,NA,NA,9
6.4.0,win,3/10/21,12:36:02,9,1,CognitiveEffortDiscounting,15,CogED_N4_1,38,4,0,2,4,blackframe.png,1,NA,16,0,2090,25pct,0.5,2,1,0,0,1,NA,NA,NA,NA,NA,NA,9
6.4.0,win,3/10/21,12:36:02,9,1,CognitiveEffortDiscounting,15,CogED_N3_3,40,4,0,2,3,blackframe.png,1,NA,16,0,1602,25pct,2,4,1,0,0,1,NA,NA,NA,NA,NA,NA,9
6.4.0,win,3/10/21,12:36:02,9,1,CognitiveEffortDiscounting,15,CogED_N4_3,42,4,0,2,4,blackframe.png,1,NA,16,0,1544,25pct,1,4,1,0,0,1,NA,NA,NA,NA,NA,NA,9
6.4.0,win,3/10/21,12:36:02,9,1,CognitiveEffortDiscounting,15,CogED_N2_1,45,4,0,2,2,blackframe.png,1,NA,16,0,1172,25pct,1,2,1,0,0,0.5,NA,NA,NA,NA,NA,NA,9
6.4.0,win,3/10/21,12:36:02,9,1,CognitiveEffortDiscounting,15,CogED_N4_2,49,4,0,2,4,blackframe.png,1,NA,16,0,1962,25pct,0.75,3,1,0,0,0.5,NA,NA,NA,NA,NA,NA,9
6.4.0,win,3/10/21,12:36:02,9,1,CognitiveEffortDiscounting,15,CogED_N3_3,52,4,0,2,3,blackframe.png,1,NA,16,0,2644,75pct,1,4,3,0,0,0.5,NA,NA,NA,NA,NA,NA,9
6.4.0,win,3/10/21,12:36:02,9,1,CognitiveEffortDiscounting,15,CogED_N3_1,54,4,0,2,3,blackframe.png,1,NA,16,0,1886,75pct,0.5,2,3,0,0,0.5,NA,NA,NA,NA,NA,NA,9
6.4.0,win,3/10/21,12:36:02,9,1,CognitiveEffortDiscounting,15,CogED_N3_2,56,4,0,2,3,blackframe.png,1,NA,16,0,1848,25pct,3,3,1,0,0,0.5,NA,NA,NA,NA,NA,NA,9
6.4.0,win,3/10/21,12:36:02,9,1,CognitiveEffortDiscounting,15,CogED_N3_2,58,4,0,2,3,blackframe.png,1,NA,25,0,2135,75pct,1.5,3,1,0,0,0.5,NA,NA,NA,NA,NA,NA,9
6.4.0,win,3/10/21,12:36:02,9,1,CognitiveEffortDiscounting,15,CogED_N4_2,60,4,0,2,4,blackframe.png,1,NA,16,0,1856,25pct,0.375,3,1,0,0,0.5,NA,NA,NA,NA,NA,NA,9
6.4.0,win,3/10/21,12:36:02,9,1,CognitiveEffortDiscounting,15,CogED_N4_3,62,4,0,2,4,blackframe.png,1,NA,25,0,996,75pct,0.5,4,1,0,0,0.5,NA,NA,NA,NA,NA,NA,9
6.4.0,win,3/10/21,12:36:02,9,1,CognitiveEffortDiscounting,15,CogED_N4_2,66,4,0,2,4,blackframe.png,1,NA,25,0,1497,25pct,0.1875,3,4,0,0,0.5,NA,NA,NA,NA,NA,NA,9
6.4.0,win,3/10/21,12:36:02,9,1,CognitiveEffortDiscounting,15,CogED_N3_3,68,4,0,2,3,blackframe.png,1,NA,16,0,1345,25pct,1.5,4,1,0,0,0.5,NA,NA,NA,NA,NA,NA,9
6.4.0,win,3/10/21,12:36:02,9,1,CognitiveEffortDiscounting,15,CogED_N4_3,70,4,0,2,4,blackframe.png,1,NA,25,0,2030,75pct,0.25,4,1,0,0,0.5,NA,NA,NA,NA,NA,NA,9
6.4.0,win,3/10/21,12:36:02,9,1,CognitiveEffortDiscounting,15,reminder,72,4,0,2,4,cog_ed_nbackintro2.htm,1,NA,57,0,8495,75pct,0.25,4,1,0,0,0.5,NA,NA,NA,NA,NA,NA,9
6.4.0,win,3/10/21,12:36:02,9,1,CognitiveEffortDiscounting,15,CogED_N2_1,73,4,0,2,2,blackframe.png,1,NA,16,0,2318,25pct,0.5,2,1,0,0,0.25,NA,NA,NA,NA,NA,NA,9
6.4.0,win,3/10/21,12:36:02,9,1,CognitiveEffortDiscounting,15,CogED_N2_1,78,4,0,2,2,blackframe.png,1,NA,25,0,1060,25pct,0.25,2,2,0,0,0.125,NA,NA,NA,NA,NA,NA,9
6.4.0,win,3/10/21,12:36:02,9,1,CognitiveEffortDiscounting,15,CogED_N3_1,80,4,0,2,3,blackframe.png,1,NA,25,0,1637,75pct,0.75,2,1,0,0,0.125,NA,NA,NA,NA,NA,NA,9
6.4.0,win,3/10/21,12:36:02,9,1,CognitiveEffortDiscounting,15,CogED_N4_1,82,4,0,2,4,blackframe.png,1,NA,16,0,1333,25pct,0.25,2,1,0,0,0.125,NA,NA,NA,NA,NA,NA,9
6.4.0,win,3/10/21,12:36:02,9,1,CognitiveEffortDiscounting,15,CogED_N3_2,84,4,0,2,3,blackframe.png,1,NA,25,0,919,75pct,0.75,3,1,0,0,0.125,NA,NA,NA,NA,NA,NA,9
6.4.0,win,3/10/21,12:36:02,9,1,CognitiveEffortDiscounting,15,CogED_N3_2,86,4,0,2,3,blackframe.png,1,NA,25,0,1067,75pct,0.375,3,1,0,0,0.125,NA,NA,NA,NA,NA,NA,9
6.4.0,win,3/10/21,12:36:02,9,1,CognitiveEffortDiscounting,15,CogED_N4_2,88,4,0,2,4,blackframe.png,1,NA,16,0,1183,25pct,0.28125,3,1,0,0,0.125,NA,NA,NA,NA,NA,NA,9
6.4.0,win,3/10/21,12:36:02,9,1,CognitiveEffortDiscounting,15,CogED_N3_1,91,4,0,2,3,blackframe.png,1,NA,25,0,999,75pct,0.625,2,1,0,0,0.125,NA,NA,NA,NA,NA,NA,9
6.4.0,win,3/10/21,12:36:02,9,1,CognitiveEffortDiscounting,15,CogED_N3_3,94,4,0,2,3,blackframe.png,1,NA,25,0,1156,75pct,1.25,4,1,0,0,0.125,NA,NA,NA,NA,NA,NA,9
6.4.0,win,3/10/21,12:36:02,9,1,CognitiveEffortDiscounting,15,CogED_N2_3,96,4,0,2,2,blackframe.png,1,NA,25,0,1035,75pct,1,4,1,0,0,0.125,NA,NA,NA,NA,NA,NA,9
6.4.0,win,3/10/21,12:36:02,9,1,CognitiveEffortDiscounting,15,CogED_N3_1,99,4,0,2,3,blackframe.png,1,NA,16,0,1490,75pct,0.5625,2,3,0,0,0.125,NA,NA,NA,NA,NA,NA,9
6.4.0,win,3/10/21,12:36:02,9,1,CognitiveEffortDiscounting,15,CogED_N2_2,101,4,0,2,2,blackframe.png,1,NA,25,0,1352,25pct,1.5,3,2,0,0,0.125,NA,NA,NA,NA,NA,NA,9
6.4.0,win,3/10/21,12:36:02,9,1,CognitiveEffortDiscounting,15,CogED_N2_2,103,4,0,2,2,blackframe.png,1,NA,25,0,1208,25pct,2.25,3,2,0,0,0.125,NA,NA,NA,NA,NA,NA,9
6.4.0,win,3/10/21,12:36:02,9,1,CognitiveEffortDiscounting,15,CogED_N4_3,106,4,0,2,4,blackframe.png,1,NA,16,0,1265,25pct,0.125,4,1,0,0,0.125,NA,NA,NA,NA,NA,NA,9
6.4.0,win,3/10/21,12:36:02,9,1,CognitiveEffortDiscounting,15,CogED_N2_3,109,4,0,2,2,blackframe.png,1,NA,16,0,1342,75pct,0.5,4,2,0,0,0.125,NA,NA,NA,NA,NA,NA,9
6.4.0,win,3/10/21,12:36:02,9,1,CognitiveEffortDiscounting,15,CogED_N2_3,112,4,0,2,2,blackframe.png,1,NA,16,0,1329,75pct,0.75,4,2,0,0,0.125,NA,NA,NA,NA,NA,NA,9
6.4.0,win,3/10/21,12:36:02,9,1,CognitiveEffortDiscounting,15,CogED_N3_2,117,4,0,2,3,blackframe.png,1,NA,16,0,1426,25pct,0.1875,3,1,0,0,0.125,NA,NA,NA,NA,NA,NA,9
6.4.0,win,3/10/21,12:36:02,9,1,CognitiveEffortDiscounting,15,CogED_N3_2,119,4,0,2,3,blackframe.png,1,NA,25,0,1682,25pct,0.09375,3,3,0,0,0.125,NA,NA,NA,NA,NA,NA,9
6.4.0,win,3/10/21,12:36:02,9,1,CognitiveEffortDiscounting,15,CogED_N2_1,122,4,0,2,2,blackframe.png,1,NA,25,0,1406,25pct,0.375,2,2,0,0,0.0625,NA,NA,NA,NA,NA,NA,9
6.4.0,win,3/10/21,12:36:02,9,1,CognitiveEffortDiscounting,15,CogED_N2_2,125,4,0,2,2,blackframe.png,1,NA,16,0,838,75pct,2.625,3,2,0,0,0.0625,NA,NA,NA,NA,NA,NA,9
6.4.0,win,3/10/21,12:36:02,9,1,CognitiveEffortDiscounting,15,CogED_N2_2,127,4,0,2,2,blackframe.png,1,NA,16,0,1029,75pct,2.8125,3,2,0,0,0.0625,NA,NA,NA,NA,NA,NA,9
6.4.0,win,3/10/21,12:36:02,9,1,CognitiveEffortDiscounting,15,CogED_N2_3,131,4,0,2,2,blackframe.png,1,NA,16,0,1478,75pct,0.875,4,2,0,0,0.0625,NA,NA,NA,NA,NA,NA,9
6.4.0,win,3/10/21,12:36:02,9,1,CognitiveEffortDiscounting,15,CogED_N4_1,133,4,0,2,4,blackframe.png,1,NA,16,0,1390,75pct,0.125,2,4,0,0,0.0625,NA,NA,NA,NA,NA,NA,9
6.4.0,win,3/10/21,12:36:02,9,1,CognitiveEffortDiscounting,15,CogED_N2_2,136,4,0,2,2,blackframe.png,1,NA,25,0,1526,25pct,2.90625,3,2,0,0,0.0625,NA,NA,NA,NA,NA,NA,9
6.4.0,win,3/10/21,12:36:02,9,1,CognitiveEffortDiscounting,15,CogED_N2_1,138,4,0,2,2,blackframe.png,1,NA,16,0,1641,75pct,0.4375,2,2,0,0,0.03125,NA,NA,NA,NA,NA,NA,9
6.4.0,win,3/10/21,12:36:02,9,1,CognitiveEffortDiscounting,15,CogED_N4_1,141,4,0,2,4,blackframe.png,1,NA,16,0,1054,25pct,0.1875,2,1,0,0,0.03125,NA,NA,NA,NA,NA,NA,9
6.4.0,win,3/10/21,12:36:02,9,1,CognitiveEffortDiscounting,15,CogED_N3_3,143,4,0,2,3,blackframe.png,1,NA,16,0,1369,75pct,1.125,4,3,0,0,0.03125,NA,NA,NA,NA,NA,NA,9
6.4.0,win,3/10/21,12:36:02,9,1,phase3,17,start,3,4,1,3,1,,1,0,37,1,594,,NA,NA,NA,2,0,0.03125,NA,NA,NA,NA,NA,NA,9
6.4.0,win,3/10/21,12:36:02,9,1,phase3,17,nontarget,5,4,1,3,1,X,19,4,37,1,939,,NA,NA,NA,2,0,0.03125,NA,NA,NA,NA,NA,NA,9
6.4.0,win,3/10/21,12:36:02,9,1,phase3,17,nontarget,7,4,1,3,1,Z,20,19,37,1,900,,NA,NA,NA,2,0,0.03125,NA,NA,NA,NA,NA,NA,9
6.4.0,win,3/10/21,12:36:02,9,1,phase3,17,target,9,4,1,3,1,Z,20,20,31,1,803,,NA,NA,NA,2,0,0.03125,NA,NA,NA,NA,NA,NA,9
6.4.0,win,3/10/21,12:36:02,9,1,phase3,17,nontarget,11,4,1,3,1,L,9,20,37,1,794,,NA,NA,NA,2,0,0.03125,NA,NA,NA,NA,NA,NA,9
6.4.0,win,3/10/21,12:36:02,9,1,phase3,17,target,13,4,1,3,1,L,9,9,31,1,601,,NA,NA,NA,2,0,0.03125,NA,NA,NA,NA,NA,NA,9
6.4.0,win,3/10/21,12:36:02,9,1,phase3,17,nontarget,15,4,1,3,1,R,14,9,37,1,624,,NA,NA,NA,2,0,0.03125,NA,NA,NA,NA,NA,NA,9
6.4.0,win,3/10/21,12:36:02,9,1,phase3,17,nontarget,17,4,1,3,1,S,15,14,37,1,631,,NA,NA,NA,2,0,0.03125,NA,NA,NA,NA,NA,NA,9
6.4.0,win,3/10/21,12:36:02,9,1,phase3,17,nontarget,19,4,1,3,1,N,11,15,37,1,491,,NA,NA,NA,2,0,0.03125,NA,NA,NA,NA,NA,NA,9
6.4.0,win,3/10/21,12:36:02,9,1,phase3,17,nontarget,21,4,1,3,1,X,19,11,37,1,701,,NA,NA,NA,2,0,0.03125,NA,NA,NA,NA,NA,NA,9
6.4.0,win,3/10/21,12:36:02,9,1,phase3,17,target,23,4,1,3,1,X,19,19,31,1,681,,NA,NA,NA,2,0,0.03125,NA,NA,NA,NA,NA,NA,9
6.4.0,win,3/10/21,12:36:02,9,1,phase3,17,target,25,4,1,3,1,X,19,19,31,1,576,,NA,NA,NA,2,0,0.03125,NA,NA,NA,NA,NA,NA,9
6.4.0,win,3/10/21,12:36:02,9,1,phase3,17,nontarget,27,4,1,3,1,S,15,19,37,1,714,,NA,NA,NA,2,0,0.03125,NA,NA,NA,NA,NA,NA,9
6.4.0,win,3/10/21,12:36:02,9,1,phase3,17,nontarget,29,4,1,3,1,J,7,15,37,1,572,,NA,NA,NA,2,0,0.03125,NA,NA,NA,NA,NA,NA,9
6.4.0,win,3/10/21,12:36:02,9,1,phase3,17,nontarget,31,4,1,3,1,B,1,7,37,1,664,,NA,NA,NA,2,0,0.03125,NA,NA,NA,NA,NA,NA,9
6.4.0,win,3/10/21,12:36:02,9,1,phase3,17,nontarget,33,4,1,3,1,N,11,1,37,1,965,,NA,NA,NA,2,0,0.03125,NA,NA,NA,NA,NA,NA,9
6.4.0,win,3/10/21,12:36:02,9,1,phase3,17,nontarget,35,4,1,3,1,C,2,11,37,1,599,,NA,NA,NA,2,0,0.03125,NA,NA,NA,NA,NA,NA,9
6.4.0,win,3/10/21,12:36:02,9,1,phase3,17,target,37,4,1,3,1,C,2,2,31,1,687,,NA,NA,NA,2,0,0.03125,NA,NA,NA,NA,NA,NA,9
6.4.0,win,3/10/21,12:36:02,9,1,phase3,17,nontarget,39,4,1,3,1,N,11,2,37,1,514,,NA,NA,NA,2,0,0.03125,NA,NA,NA,NA,NA,NA,9
6.4.0,win,3/10/21,12:36:02,9,1,phase3,17,nontarget,41,4,1,3,1,W,18,11,37,1,609,,NA,NA,NA,2,0,0.03125,NA,NA,NA,NA,NA,NA,9
6.4.0,win,3/10/21,12:36:02,9,1,phase3,17,nontarget,43,4,1,3,1,K,8,18,37,1,742,,NA,NA,NA,2,0,0.03125,NA,NA,NA,NA,NA,NA,9
6.4.0,win,3/10/21,12:36:02,9,1,finish,18,finish,1,4,1,3,1,Thank you!,1,18,57,0,1038,,NA,NA,NA,2,2,0.03125,NA,NA,NA,NA,NA,NA,9
6.4.0,win,3/10/21,16:42:16,51,1,1back,2,start,3,1,0,1,1,,1,0,37,1,837,25pct,NA,NA,NA,0,0,0,NA,NA,NA,NA,NA,NA,51
6.4.0,win,3/10/21,16:42:16,51,1,1back,2,target,5,1,0,1,1,J,7,7,31,1,719,25pct,NA,NA,NA,0,0,0,NA,NA,NA,NA,NA,NA,51
6.4.0,win,3/10/21,16:42:16,51,1,1back,2,nontarget,7,1,0,1,1,Z,20,7,37,1,691,25pct,NA,NA,NA,0,0,0,NA,NA,NA,NA,NA,NA,51
6.4.0,win,3/10/21,16:42:16,51,1,1back,2,nontarget,9,1,0,1,1,J,7,20,37,1,669,25pct,NA,NA,NA,0,0,0,NA,NA,NA,NA,NA,NA,51
6.4.0,win,3/10/21,16:42:16,51,1,1back,2,nontarget,11,1,0,1,1,V,17,7,37,1,1015,25pct,NA,NA,NA,0,0,0,NA,NA,NA,NA,NA,NA,51
6.4.0,win,3/10/21,16:42:16,51,1,1back,2,nontarget,13,1,0,1,1,T,16,17,37,1,994,25pct,NA,NA,NA,0,0,0,NA,NA,NA,NA,NA,NA,51
6.4.0,win,3/10/21,16:42:16,51,1,1back,2,nontarget,15,1,0,1,1,B,1,16,37,1,779,25pct,NA,NA,NA,0,0,0,NA,NA,NA,NA,NA,NA,51
6.4.0,win,3/10/21,16:42:16,51,1,1back,2,nontarget,17,1,0,1,1,L,9,1,37,1,709,25pct,NA,NA,NA,0,0,0,NA,NA,NA,NA,NA,NA,51
6.4.0,win,3/10/21,16:42:16,51,1,1back,2,target,19,1,0,1,1,L,9,9,31,1,767,25pct,NA,NA,NA,0,0,0,NA,NA,NA,NA,NA,NA,51
6.4.0,win,3/10/21,16:42:16,51,1,1back,2,target,21,1,0,1,1,L,9,9,31,1,881,25pct,NA,NA,NA,0,0,0,NA,NA,NA,NA,NA,NA,51
6.4.0,win,3/10/21,16:42:16,51,1,1back,2,nontarget,23,1,0,1,1,F,4,9,37,1,626,25pct,NA,NA,NA,0,0,0,NA,NA,NA,NA,NA,NA,51
6.4.0,win,3/10/21,16:42:16,51,1,1back,2,nontarget,25,1,0,1,1,T,16,4,37,1,604,25pct,NA,NA,NA,0,0,0,NA,NA,NA,NA,NA,NA,51
6.4.0,win,3/10/21,16:42:16,51,1,1back,2,target,27,1,0,1,1,T,16,16,31,1,359,25pct,NA,NA,NA,0,0,0,NA,NA,NA,NA,NA,NA,51
6.4.0,win,3/10/21,16:42:16,51,1,1back,2,nontarget,29,1,0,1,1,C,2,16,37,1,1034,25pct,NA,NA,NA,0,0,0,NA,NA,NA,NA,NA,NA,51
6.4.0,win,3/10/21,16:42:16,51,1,1back,2,nontarget,31,1,0,1,1,Z,20,2,37,1,580,25pct,NA,NA,NA,0,0,0,NA,NA,NA,NA,NA,NA,51
6.4.0,win,3/10/21,16:42:16,51,1,1back,2,nontarget,33,1,0,1,1,H,6,20,37,1,623,25pct,NA,NA,NA,0,0,0,NA,NA,NA,NA,NA,NA,51
6.4.0,win,3/10/21,16:42:16,51,1,1back,2,target,35,1,0,1,1,H,6,6,31,1,570,25pct,NA,NA,NA,0,0,0,NA,NA,NA,NA,NA,NA,51
6.4.0,win,3/10/21,16:42:16,51,1,1back,2,nontarget,37,1,0,1,1,X,19,6,37,1,645,25pct,NA,NA,NA,0,0,0,NA,NA,NA,NA,NA,NA,51
6.4.0,win,3/10/21,16:42:16,51,1,1back,2,nontarget,39,1,0,1,1,M,10,19,37,1,600,25pct,NA,NA,NA,0,0,0,NA,NA,NA,NA,NA,NA,51
6.4.0,win,3/10/21,16:42:16,51,1,1back,2,nontarget,41,1,0,1,1,C,2,10,37,1,554,25pct,NA,NA,NA,0,0,0,NA,NA,NA,NA,NA,NA,51
6.4.0,win,3/10/21,16:42:16,51,1,1back,2,nontarget,43,1,0,1,1,W,18,2,37,1,636,25pct,NA,NA,NA,0,0,0,NA,NA,NA,NA,NA,NA,51
6.4.0,win,3/10/21,16:42:16,51,1,ratingSummary,4,ratingSummary,1,1,0,1,1,0,0,NA,0,0,0,25pct,NA,NA,NA,0,0,0,4,1,8,20,6,7,51
6.4.0,win,3/10/21,16:42:16,51,1,2back,5,start,3,2,0,1,2,,1,0,37,1,1239,25pct,NA,NA,NA,0,0,0,NA,NA,NA,NA,NA,NA,51
6.4.0,win,3/10/21,16:42:16,51,1,2back,5,start,4,2,0,1,2,,1,0,37,1,1370,25pct,NA,NA,NA,0,0,0,NA,NA,NA,NA,NA,NA,51
6.4.0,win,3/10/21,16:42:16,51,1,2back,5,target,6,2,0,1,2,B,1,1,31,1,533,25pct,NA,NA,NA,0,0,0,NA,NA,NA,NA,NA,NA,51
6.4.0,win,3/10/21,16:42:16,51,1,2back,5,nontarget,8,2,0,1,2,T,16,15,37,1,624,25pct,NA,NA,NA,0,0,0,NA,NA,NA,NA,NA,NA,51
6.4.0,win,3/10/21,16:42:16,51,1,2back,5,target,10,2,0,1,2,B,1,1,31,1,563,25pct,NA,NA,NA,0,0,0,NA,NA,NA,NA,NA,NA,51
6.4.0,win,3/10/21,16:42:16,51,1,2back,5,nontarget,12,2,0,1,2,B,1,16,37,1,1078,25pct,NA,NA,NA,0,0,0,NA,NA,NA,NA,NA,NA,51
6.4.0,win,3/10/21,16:42:16,51,1,2back,5,target,14,2,0,1,2,B,1,1,31,1,1208,25pct,NA,NA,NA,0,0,0,NA,NA,NA,NA,NA,NA,51
6.4.0,win,3/10/21,16:42:16,51,1,2back,5,nontarget,16,2,0,1,2,P,12,1,37,1,1147,25pct,NA,NA,NA,0,0,0,NA,NA,NA,NA,NA,NA,51
6.4.0,win,3/10/21,16:42:16,51,1,2back,5,target,18,2,0,1,2,B,1,1,31,1,589,25pct,NA,NA,NA,0,0,0,NA,NA,NA,NA,NA,NA,51
6.4.0,win,3/10/21,16:42:16,51,1,2back,5,nontarget,20,2,0,1,2,Z,20,12,37,1,1064,25pct,NA,NA,NA,0,0,0,NA,NA,NA,NA,NA,NA,51
6.4.0,win,3/10/21,16:42:16,51,1,2back,5,nontarget,22,2,0,1,2,G,5,1,37,1,1282,25pct,NA,NA,NA,0,0,0,NA,NA,NA,NA,NA,NA,51
6.4.0,win,3/10/21,16:42:16,51,1,2back,5,nontarget,24,2,0,1,2,D,3,20,37,1,725,25pct,NA,NA,NA,0,0,0,NA,NA,NA,NA,NA,NA,51
6.4.0,win,3/10/21,16:42:16,51,1,2back,5,nontarget,26,2,0,1,2,H,6,5,37,1,999,25pct,NA,NA,NA,0,0,0,NA,NA,NA,NA,NA,NA,51
6.4.0,win,3/10/21,16:42:16,51,1,2back,5,nontarget,28,2,0,1,2,Z,20,3,37,1,1034,25pct,NA,NA,NA,0,0,0,NA,NA,NA,NA,NA,NA,51
6.4.0,win,3/10/21,16:42:16,51,1,2back,5,nontarget,30,2,0,1,2,F,4,6,37,1,796,25pct,NA,NA,NA,0,0,0,NA,NA,NA,NA,NA,NA,51
6.4.0,win,3/10/21,16:42:16,51,1,2back,5,nontarget,32,2,0,1,2,W,18,20,37,1,726,25pct,NA,NA,NA,0,0,0,NA,NA,NA,NA,NA,NA,51
6.4.0,win,3/10/21,16:42:16,51,1,2back,5,nontarget,34,2,0,1,2,S,15,4,37,1,1255,25pct,NA,NA,NA,0,0,0,NA,NA,NA,NA,NA,NA,51
6.4.0,win,3/10/21,16:42:16,51,1,2back,5,nontarget,36,2,0,1,2,J,7,18,37,1,1329,25pct,NA,NA,NA,0,0,0,NA,NA,NA,NA,NA,NA,51
6.4.0,win,3/10/21,16:42:16,51,1,2back,5,nontarget,38,2,0,1,2,D,3,15,37,1,1082,25pct,NA,NA,NA,0,0,0,NA,NA,NA,NA,NA,NA,51
6.4.0,win,3/10/21,16:42:16,51,1,2back,5,target,40,2,0,1,2,J,7,7,31,1,1164,25pct,NA,NA,NA,0,0,0,NA,NA,NA,NA,NA,NA,51
6.4.0,win,3/10/21,16:42:16,51,1,2back,5,nontarget,42,2,0,1,2,B,1,3,37,1,1087,25pct,NA,NA,NA,0,0,0,NA,NA,NA,NA,NA,NA,51
6.4.0,win,3/10/21,16:42:16,51,1,2back,5,nontarget,44,2,0,1,2,S,15,7,37,1,913,25pct,NA,NA,NA,0,0,0,NA,NA,NA,NA,NA,NA,51
6.4.0,win,3/10/21,16:42:16,51,1,ratingSummary,7,ratingSummary,1,2,0,1,2,0,0,NA,0,0,0,25pct,NA,NA,NA,0,0,0,13,3,10,21,13,7,51
6.4.0,win,3/10/21,16:42:16,51,1,3back,8,start,3,3,0,1,3,,1,0,37,1,836,25pct,NA,NA,NA,0,0,0,NA,NA,NA,NA,NA,NA,51
6.4.0,win,3/10/21,16:42:16,51,1,3back,8,start,4,3,0,1,3,,1,0,37,1,1143,25pct,NA,NA,NA,0,0,0,NA,NA,NA,NA,NA,NA,51
6.4.0,win,3/10/21,16:42:16,51,1,3back,8,start,5,3,0,1,3,,1,0,37,1,770,25pct,NA,NA,NA,0,0,0,NA,NA,NA,NA,NA,NA,51
6.4.0,win,3/10/21,16:42:16,51,1,3back,8,nontarget,7,3,0,1,3,C,2,6,37,1,925,25pct,NA,NA,NA,0,0,0,NA,NA,NA,NA,NA,NA,51
6.4.0,win,3/10/21,16:42:16,51,1,3back,8,target,9,3,0,1,3,C,2,2,31,1,824,25pct,NA,NA,NA,0,0,0,NA,NA,NA,NA,NA,NA,51
6.4.0,win,3/10/21,16:42:16,51,1,3back,8,nontarget,11,3,0,1,3,D,3,5,37,1,1012,25pct,NA,NA,NA,0,0,0,NA,NA,NA,NA,NA,NA,51
6.4.0,win,3/10/21,16:42:16,51,1,3back,8,nontarget,13,3,0,1,3,Z,20,2,37,1,950,25pct,NA,NA,NA,0,0,0,NA,NA,NA,NA,NA,NA,51
6.4.0,win,3/10/21,16:42:16,51,1,3back,8,nontarget,15,3,0,1,3,M,10,2,37,1,1368,25pct,NA,NA,NA,0,0,0,NA,NA,NA,NA,NA,NA,51
6.4.0,win,3/10/21,16:42:16,51,1,3back,8,nontarget,17,3,0,1,3,K,8,3,37,1,1419,25pct,NA,NA,NA,0,0,0,NA,NA,NA,NA,NA,NA,51
6.4.0,win,3/10/21,16:42:16,51,1,3back,8,target,19,3,0,1,3,Z,20,20,31,1,838,25pct,NA,NA,NA,0,0,0,NA,NA,NA,NA,NA,NA,51
6.4.0,win,3/10/21,16:42:16,51,1,3back,8,nontarget,21,3,0,1,3,S,15,10,37,1,1377,25pct,NA,NA,NA,0,0,0,NA,NA,NA,NA,NA,NA,51
6.4.0,win,3/10/21,16:42:16,51,1,3back,8,nontarget,23,3,0,1,3,G,5,8,37,1,1362,25pct,NA,NA,NA,0,0,0,NA,NA,NA,NA,NA,NA,51
6.4.0,win,3/10/21,16:42:16,51,1,3back,8,nontarget,25,3,0,1,3,R,14,20,37,1,693,25pct,NA,NA,NA,0,0,0,NA,NA,NA,NA,NA,NA,51
6.4.0,win,3/10/21,16:42:16,51,1,3back,8,nontarget,27,3,0,1,3,D,3,15,37,1,1823,25pct,NA,NA,NA,0,0,0,NA,NA,NA,NA,NA,NA,51
6.4.0,win,3/10/21,16:42:16,51,1,3back,8,target,29,3,0,1,3,G,5,5,31,1,497,25pct,NA,NA,NA,0,0,0,NA,NA,NA,NA,NA,NA,51
6.4.0,win,3/10/21,16:42:16,51,1,3back,8,nontarget,31,3,0,1,3,K,8,14,37,1,1099,25pct,NA,NA,NA,0,0,0,NA,NA,NA,NA,NA,NA,51
6.4.0,win,3/10/21,16:42:16,51,1,3back,8,nontarget,33,3,0,1,3,W,18,3,37,1,1037,25pct,NA,NA,NA,0,0,0,NA,NA,NA,NA,NA,NA,51
6.4.0,win,3/10/21,16:42:16,51,1,3back,8,target,35,3,0,1,3,G,5,5,31,1,1008,25pct,NA,NA,NA,0,0,0,NA,NA,NA,NA,NA,NA,51
6.4.0,win,3/10/21,16:42:16,51,1,3back,8,nontarget,37,3,0,1,3,D,3,8,37,1,1248,25pct,NA,NA,NA,0,0,0,NA,NA,NA,NA,NA,NA,51
6.4.0,win,3/10/21,16:42:16,51,1,3back,8,nontarget,39,3,0,1,3,T,16,18,37,1,682,25pct,NA,NA,NA,0,0,0,NA,NA,NA,NA,NA,NA,51
6.4.0,win,3/10/21,16:42:16,51,1,3back,8,nontarget,41,3,0,1,3,W,18,5,37,1,1884,25pct,NA,NA,NA,0,0,0,NA,NA,NA,NA,NA,NA,51
6.4.0,win,3/10/21,16:42:16,51,1,3back,8,target,43,3,0,1,3,D,3,3,0,0,2000,25pct,NA,NA,NA,0,0,0,NA,NA,NA,NA,NA,NA,51
6.4.0,win,3/10/21,16:42:16,51,1,3back,8,nontarget,45,3,0,1,3,K,8,16,31,0,1760,25pct,NA,NA,NA,0,0,0,NA,NA,NA,NA,NA,NA,51
6.4.0,win,3/10/21,16:42:16,51,1,ratingSummary,10,ratingSummary,1,3,0,1,3,0,0,NA,0,0,0,25pct,NA,NA,NA,0,0,0,16,3,14,15,15,13,51
6.4.0,win,3/10/21,16:42:16,51,1,4back,11,start,3,4,0,1,4,,1,0,37,1,1431,25pct,NA,NA,NA,0,0,0,NA,NA,NA,NA,NA,NA,51
6.4.0,win,3/10/21,16:42:16,51,1,4back,11,start,4,4,0,1,4,,1,0,37,1,1162,25pct,NA,NA,NA,0,0,0,NA,NA,NA,NA,NA,NA,51
6.4.0,win,3/10/21,16:42:16,51,1,4back,11,start,5,4,0,1,4,,1,0,37,1,1646,25pct,NA,NA,NA,0,0,0,NA,NA,NA,NA,NA,NA,51
6.4.0,win,3/10/21,16:42:16,51,1,4back,11,start,6,4,0,1,4,,1,0,37,1,1497,25pct,NA,NA,NA,0,0,0,NA,NA,NA,NA,NA,NA,51
6.4.0,win,3/10/21,16:42:16,51,1,4back,11,target,8,4,0,1,4,B,1,1,0,0,2000,25pct,NA,NA,NA,0,0,0,NA,NA,NA,NA,NA,NA,51
6.4.0,win,3/10/21,16:42:16,51,1,4back,11,nontarget,10,4,0,1,4,H,6,15,37,1,1327,25pct,NA,NA,NA,0,0,0,NA,NA,NA,NA,NA,NA,51
6.4.0,win,3/10/21,16:42:16,51,1,4back,11,nontarget,12,4,0,1,4,P,12,7,37,1,873,25pct,NA,NA,NA,0,0,0,NA,NA,NA,NA,NA,NA,51
6.4.0,win,3/10/21,16:42:16,51,1,4back,11,nontarget,14,4,0,1,4,L,9,20,37,1,764,25pct,NA,NA,NA,0,0,0,NA,NA,NA,NA,NA,NA,51
6.4.0,win,3/10/21,16:42:16,51,1,4back,11,nontarget,16,4,0,1,4,R,14,1,37,1,1095,25pct,NA,NA,NA,0,0,0,NA,NA,NA,NA,NA,NA,51
6.4.0,win,3/10/21,16:42:16,51,1,4back,11,nontarget,18,4,0,1,4,Z,20,6,31,0,993,25pct,NA,NA,NA,0,0,0,NA,NA,NA,NA,NA,NA,51
6.4.0,win,3/10/21,16:42:16,51,1,4back,11,nontarget,20,4,0,1,4,S,15,12,37,1,740,25pct,NA,NA,NA,0,0,0,NA,NA,NA,NA,NA,NA,51
6.4.0,win,3/10/21,16:42:16,51,1,4back,11,nontarget,22,4,0,1,4,S,15,9,31,0,1686,25pct,NA,NA,NA,0,0,0,NA,NA,NA,NA,NA,NA,51
6.4.0,win,3/10/21,16:42:16,51,1,4back,11,nontarget,24,4,0,1,4,H,6,14,31,0,967,25pct,NA,NA,NA,0,0,0,NA,NA,NA,NA,NA,NA,51
6.4.0,win,3/10/21,16:42:16,51,1,4back,11,target,26,4,0,1,4,Z,20,20,31,1,1105,25pct,NA,NA,NA,0,0,0,NA,NA,NA,NA,NA,NA,51
6.4.0,win,3/10/21,16:42:16,51,1,4back,11,nontarget,28,4,0,1,4,P,12,15,31,0,1204,25pct,NA,NA,NA,0,0,0,NA,NA,NA,NA,NA,NA,51
6.4.0,win,3/10/21,16:42:16,51,1,4back,11,target,30,4,0,1,4,S,15,15,37,0,1110,25pct,NA,NA,NA,0,0,0,NA,NA,NA,NA,NA,NA,51
6.4.0,win,3/10/21,16:42:16,51,1,4back,11,target,32,4,0,1,4,H,6,6,31,1,1217,25pct,NA,NA,NA,0,0,0,NA,NA,NA,NA,NA,NA,51
6.4.0,win,3/10/21,16:42:16,51,1,4back,11,nontarget,34,4,0,1,4,N,11,20,37,1,539,25pct,NA,NA,NA,0,0,0,NA,NA,NA,NA,NA,NA,51
6.4.0,win,3/10/21,16:42:16,51,1,4back,11,nontarget,36,4,0,1,4,R,14,12,37,1,413,25pct,NA,NA,NA,0,0,0,NA,NA,NA,NA,NA,NA,51
6.4.0,win,3/10/21,16:42:16,51,1,4back,11,target,38,4,0,1,4,S,15,15,31,1,1288,25pct,NA,NA,NA,0,0,0,NA,NA,NA,NA,NA,NA,51
6.4.0,win,3/10/21,16:42:16,51,1,4back,11,nontarget,40,4,0,1,4,F,4,6,37,1,539,25pct,NA,NA,NA,0,0,0,NA,NA,NA,NA,NA,NA,51
6.4.0,win,3/10/21,16:42:16,51,1,4back,11,nontarget,42,4,0,1,4,V,17,11,37,1,510,25pct,NA,NA,NA,0,0,0,NA,NA,NA,NA,NA,NA,51
6.4.0,win,3/10/21,16:42:16,51,1,4back,11,nontarget,44,4,0,1,4,S,15,14,31,0,1297,25pct,NA,NA,NA,0,0,0,NA,NA,NA,NA,NA,NA,51
6.4.0,win,3/10/21,16:42:16,51,1,4back,11,nontarget,46,4,0,1,4,L,9,15,37,1,642,25pct,NA,NA,NA,0,0,0,NA,NA,NA,NA,NA,NA,51
6.4.0,win,3/10/21,16:42:16,51,1,ratingSummary,13,ratingSummary,1,4,0,1,4,0,0,NA,0,0,0,25pct,NA,NA,NA,0,0,0,19,3,20,10,18,15,51
6.4.0,win,3/10/21,16:42:16,51,1,CognitiveEffortDiscounting_Practice,14,CogED_practice,1,4,0,2,2,blackframe.png,1,NA,16,0,2789,25pct,2,2,1,0,0,0,NA,NA,NA,NA,NA,NA,51
6.4.0,win,3/10/21,16:42:16,51,1,CognitiveEffortDiscounting_Practice,14,CogED_practice,3,4,0,2,2,blackframe.png,1,NA,16,0,2641,75pct,1,2,2,0,0,0,NA,NA,NA,NA,NA,NA,51
6.4.0,win,3/10/21,16:42:16,51,1,CognitiveEffortDiscounting_Practice,14,CogED_practice,5,4,0,2,2,blackframe.png,1,NA,16,0,2565,25pct,1.5,2,1,0,0,0,NA,NA,NA,NA,NA,NA,51
6.4.0,win,3/10/21,16:42:16,51,1,CognitiveEffortDiscounting_Practice,14,CogED_practice,7,4,0,2,2,blackframe.png,1,NA,16,0,3159,75pct,1.25,2,2,0,0,0,NA,NA,NA,NA,NA,NA,51
6.4.0,win,3/10/21,16:42:16,51,1,CognitiveEffortDiscounting_Practice,14,CogED_practice,9,4,0,2,2,blackframe.png,1,NA,25,0,1186,25pct,1.375,2,2,0,0,0,NA,NA,NA,NA,NA,NA,51
6.4.0,win,3/10/21,16:42:16,51,1,CognitiveEffortDiscounting_Practice,14,CogED_practice,11,4,0,2,2,blackframe.png,1,NA,25,0,1798,75pct,1.4375,2,1,0,0,0,NA,NA,NA,NA,NA,NA,51
6.4.0,win,3/10/21,16:42:16,51,1,CognitiveEffortDiscounting,15,CogED_N2_3,1,4,0,2,2,blackframe.png,1,NA,25,0,1612,75pct,4,4,1,0,0,2,NA,NA,NA,NA,NA,NA,51
6.4.0,win,3/10/21,16:42:16,51,1,CognitiveEffortDiscounting,15,CogED_N3_3,3,4,0,2,3,blackframe.png,1,NA,16,0,1166,25pct,4,4,1,0,0,2,NA,NA,NA,NA,NA,NA,51
6.4.0,win,3/10/21,16:42:16,51,1,CognitiveEffortDiscounting,15,CogED_N2_1,5,4,0,2,2,blackframe.png,1,NA,25,0,1413,75pct,2,2,1,0,0,1,NA,NA,NA,NA,NA,NA,51
6.4.0,win,3/10/21,16:42:16,51,1,CognitiveEffortDiscounting,15,CogED_N3_1,7,4,0,2,3,blackframe.png,1,NA,25,0,1083,75pct,2,2,1,0,0,1,NA,NA,NA,NA,NA,NA,51
6.4.0,win,3/10/21,16:42:16,51,1,CognitiveEffortDiscounting,15,CogED_N2_1,10,4,0,2,2,blackframe.png,1,NA,16,0,1799,75pct,1,2,2,0,0,0.5,NA,NA,NA,NA,NA,NA,51
6.4.0,win,3/10/21,16:42:16,51,1,CognitiveEffortDiscounting,15,CogED_N4_2,12,4,0,2,4,blackframe.png,1,NA,25,0,1117,75pct,3,3,1,0,0,0.5,NA,NA,NA,NA,NA,NA,51
6.4.0,win,3/10/21,16:42:16,51,1,CognitiveEffortDiscounting,15,CogED_N4_2,14,4,0,2,4,blackframe.png,1,NA,16,0,1696,25pct,1.5,3,1,0,0,0.5,NA,NA,NA,NA,NA,NA,51
6.4.0,win,3/10/21,16:42:16,51,1,CognitiveEffortDiscounting,15,CogED_N2_1,16,4,0,2,2,blackframe.png,1,NA,25,0,1233,75pct,1.5,2,1,0,0,0.25,NA,NA,NA,NA,NA,NA,51
6.4.0,win,3/10/21,16:42:16,51,1,CognitiveEffortDiscounting,15,CogED_N2_1,19,4,0,2,2,blackframe.png,1,NA,25,0,1552,25pct,1.25,2,2,0,0,0.125,NA,NA,NA,NA,NA,NA,51
6.4.0,win,3/10/21,16:42:16,51,1,CognitiveEffortDiscounting,15,CogED_N3_2,24,4,0,2,3,blackframe.png,1,NA,16,0,949,25pct,3,3,1,0,0,0.125,NA,NA,NA,NA,NA,NA,51
6.4.0,win,3/10/21,16:42:16,51,1,CognitiveEffortDiscounting,15,CogED_N2_3,26,4,0,2,2,blackframe.png,1,NA,16,0,1496,75pct,2,4,2,0,0,0.125,NA,NA,NA,NA,NA,NA,51
6.4.0,win,3/10/21,16:42:16,51,1,CognitiveEffortDiscounting,15,CogED_N2_2,28,4,0,2,2,blackframe.png,1,NA,25,0,1004,75pct,3,3,1,0,0,0.125,NA,NA,NA,NA,NA,NA,51
6.4.0,win,3/10/21,16:42:16,51,1,CognitiveEffortDiscounting,15,CogED_N4_3,30,4,0,2,4,blackframe.png,1,NA,25,0,868,75pct,4,4,1,0,0,0.125,NA,NA,NA,NA,NA,NA,51
6.4.0,win,3/10/21,16:42:16,51,1,CognitiveEffortDiscounting,15,CogED_N3_2,32,4,0,2,3,blackframe.png,1,NA,16,0,2630,25pct,1.5,3,1,0,0,0.125,NA,NA,NA,NA,NA,NA,51
6.4.0,win,3/10/21,16:42:16,51,1,CognitiveEffortDiscounting,15,CogED_N3_2,35,4,0,2,3,blackframe.png,1,NA,25,0,2292,25pct,0.75,3,3,0,0,0.125,NA,NA,NA,NA,NA,NA,51
6.4.0,win,3/10/21,16:42:16,51,1,CognitiveEffortDiscounting,15,CogED_N2_2,37,4,0,2,2,blackframe.png,1,NA,25,0,1921,25pct,1.5,3,2,0,0,0.125,NA,NA,NA,NA,NA,NA,51
6.4.0,win,3/10/21,16:42:16,51,1,CognitiveEffortDiscounting,15,CogED_N2_3,39,4,0,2,2,blackframe.png,1,NA,25,0,1370,75pct,3,4,1,0,0,0.125,NA,NA,NA,NA,NA,NA,51
6.4.0,win,3/10/21,16:42:16,51,1,CognitiveEffortDiscounting,15,CogED_N4_3,41,4,0,2,4,blackframe.png,1,NA,25,0,1385,75pct,2,4,1,0,0,0.125,NA,NA,NA,NA,NA,NA,51
6.4.0,win,3/10/21,16:42:16,51,1,CognitiveEffortDiscounting,15,CogED_N3_1,43,4,0,2,3,blackframe.png,1,NA,16,0,2820,25pct,1,2,1,0,0,0.125,NA,NA,NA,NA,NA,NA,51
6.4.0,win,3/10/21,16:42:16,51,1,CognitiveEffortDiscounting,15,CogED_N2_3,46,4,0,2,2,blackframe.png,1,NA,16,0,2263,75pct,2.5,4,2,0,0,0.125,NA,NA,NA,NA,NA,NA,51
6.4.0,win,3/10/21,16:42:16,51,1,CognitiveEffortDiscounting,15,CogED_N4_3,50,4,0,2,4,blackframe.png,1,NA,16,0,2466,25pct,1,4,1,0,0,0.125,NA,NA,NA,NA,NA,NA,51
6.4.0,win,3/10/21,16:42:16,51,1,CognitiveEffortDiscounting,15,CogED_N4_1,52,4,0,2,4,blackframe.png,1,NA,16,0,1057,25pct,2,2,1,0,0,0.125,NA,NA,NA,NA,NA,NA,51
6.4.0,win,3/10/21,16:42:16,51,1,CognitiveEffortDiscounting,15,CogED_N3_1,54,4,0,2,3,blackframe.png,1,NA,16,0,3084,25pct,0.5,2,1,0,0,0.125,NA,NA,NA,NA,NA,NA,51
6.4.0,win,3/10/21,16:42:16,51,1,CognitiveEffortDiscounting,15,CogED_N3_2,56,4,0,2,3,blackframe.png,1,NA,25,0,1848,75pct,1.125,3,1,0,0,0.125,NA,NA,NA,NA,NA,NA,51
6.4.0,win,3/10/21,16:42:16,51,1,CognitiveEffortDiscounting,15,CogED_N3_1,59,4,0,2,3,blackframe.png,1,NA,25,0,1392,75pct,0.25,2,1,0,0,0.125,NA,NA,NA,NA,NA,NA,51
6.4.0,win,3/10/21,16:42:16,51,1,CognitiveEffortDiscounting,15,CogED_N2_2,61,4,0,2,2,blackframe.png,1,NA,25,0,1551,75pct,2.25,3,1,0,0,0.125,NA,NA,NA,NA,NA,NA,51
6.4.0,win,3/10/21,16:42:16,51,1,CognitiveEffortDiscounting,15,CogED_N3_1,63,4,0,2,3,blackframe.png,1,NA,25,0,1839,75pct,0.125,2,1,0,0,0.125,NA,NA,NA,NA,NA,NA,51
6.4.0,win,3/10/21,16:42:16,51,1,CognitiveEffortDiscounting,15,reminder,65,4,0,2,3,cog_ed_nbackintro2.htm,1,NA,57,0,2565,75pct,0.125,2,1,0,0,0.125,NA,NA,NA,NA,NA,NA,51
6.4.0,win,3/10/21,16:42:16,51,1,CognitiveEffortDiscounting,15,CogED_N4_1,66,4,0,2,4,blackframe.png,1,NA,16,0,2837,25pct,1,2,1,0,0,0.125,NA,NA,NA,NA,NA,NA,51
6.4.0,win,3/10/21,16:42:16,51,1,CognitiveEffortDiscounting,15,CogED_N3_1,68,4,0,2,3,blackframe.png,1,NA,25,0,2655,25pct,0.0625,2,3,0,0,0.125,NA,NA,NA,NA,NA,NA,51
6.4.0,win,3/10/21,16:42:16,51,1,CognitiveEffortDiscounting,15,CogED_N4_1,71,4,0,2,4,blackframe.png,1,NA,16,0,1045,25pct,0.5,2,1,0,0,0.125,NA,NA,NA,NA,NA,NA,51
6.4.0,win,3/10/21,16:42:16,51,1,CognitiveEffortDiscounting,15,CogED_N2_3,74,4,0,2,2,blackframe.png,1,NA,16,0,964,25pct,2.75,4,1,0,0,0.125,NA,NA,NA,NA,NA,NA,51
6.4.0,win,3/10/21,16:42:16,51,1,CognitiveEffortDiscounting,15,CogED_N4_2,76,4,0,2,4,blackframe.png,1,NA,25,0,1111,75pct,0.75,3,1,0,0,0.125,NA,NA,NA,NA,NA,NA,51
6.4.0,win,3/10/21,16:42:16,51,1,CognitiveEffortDiscounting,15,CogED_N3_2,78,4,0,2,3,blackframe.png,1,NA,16,0,1028,25pct,0.9375,3,1,0,0,0.125,NA,NA,NA,NA,NA,NA,51
6.4.0,win,3/10/21,16:42:16,51,1,CognitiveEffortDiscounting,15,CogED_N4_3,82,4,0,2,4,blackframe.png,1,NA,25,0,1431,75pct,0.5,4,1,0,0,0.125,NA,NA,NA,NA,NA,NA,51
6.4.0,win,3/10/21,16:42:16,51,1,CognitiveEffortDiscounting,15,CogED_N4_1,84,4,0,2,4,blackframe.png,1,NA,16,0,1325,25pct,0.25,2,1,0,0,0.125,NA,NA,NA,NA,NA,NA,51
6.4.0,win,3/10/21,16:42:16,51,1,CognitiveEffortDiscounting,15,CogED_N4_2,88,4,0,2,4,blackframe.png,1,NA,25,0,989,75pct,0.375,3,1,0,0,0.125,NA,NA,NA,NA,NA,NA,51
6.4.0,win,3/10/21,16:42:16,51,1,CognitiveEffortDiscounting,15,CogED_N3_3,90,4,0,2,3,blackframe.png,1,NA,16,0,771,25pct,2,4,1,0,0,0.125,NA,NA,NA,NA,NA,NA,51
6.4.0,win,3/10/21,16:42:16,51,1,CognitiveEffortDiscounting,15,CogED_N3_3,92,4,0,2,3,blackframe.png,1,NA,25,0,1754,75pct,1,4,1,0,0,0.125,NA,NA,NA,NA,NA,NA,51
6.4.0,win,3/10/21,16:42:16,51,1,CognitiveEffortDiscounting,15,CogED_N3_2,95,4,0,2,3,blackframe.png,1,NA,25,0,896,75pct,0.84375,3,1,0,0,0.125,NA,NA,NA,NA,NA,NA,51
6.4.0,win,3/10/21,16:42:16,51,1,CognitiveEffortDiscounting,15,CogED_N2_2,97,4,0,2,2,blackframe.png,1,NA,16,0,978,25pct,1.875,3,1,0,0,0.125,NA,NA,NA,NA,NA,NA,51
6.4.0,win,3/10/21,16:42:16,51,1,CognitiveEffortDiscounting,15,CogED_N2_1,101,4,0,2,2,blackframe.png,1,NA,25,0,790,75pct,1.375,2,1,0,0,0.0625,NA,NA,NA,NA,NA,NA,51
6.4.0,win,3/10/21,16:42:16,51,1,CognitiveEffortDiscounting,15,CogED_N4_3,104,4,0,2,4,blackframe.png,1,NA,16,0,1140,75pct,0.25,4,4,0,0,0.0625,NA,NA,NA,NA,NA,NA,51
6.4.0,win,3/10/21,16:42:16,51,1,CognitiveEffortDiscounting,15,CogED_N2_2,108,4,0,2,2,blackframe.png,1,NA,25,0,869,75pct,1.6875,3,1,0,0,0.0625,NA,NA,NA,NA,NA,NA,51
6.4.0,win,3/10/21,16:42:16,51,1,CognitiveEffortDiscounting,15,CogED_N4_1,111,4,0,2,4,blackframe.png,1,NA,25,0,1488,75pct,0.125,2,1,0,0,0.0625,NA,NA,NA,NA,NA,NA,51
6.4.0,win,3/10/21,16:42:16,51,1,CognitiveEffortDiscounting,15,CogED_N2_1,113,4,0,2,2,blackframe.png,1,NA,16,0,712,25pct,1.3125,2,1,0,0,0.03125,NA,NA,NA,NA,NA,NA,51
6.4.0,win,3/10/21,16:42:16,51,1,CognitiveEffortDiscounting,15,CogED_N4_2,116,4,0,2,4,blackframe.png,1,NA,25,0,1699,25pct,0.1875,3,4,0,0,0.03125,NA,NA,NA,NA,NA,NA,51
6.4.0,win,3/10/21,16:42:16,51,1,CognitiveEffortDiscounting,15,CogED_N2_2,119,4,0,2,2,blackframe.png,1,NA,16,0,757,25pct,1.59375,3,1,0,0,0.03125,NA,NA,NA,NA,NA,NA,51
6.4.0,win,3/10/21,16:42:16,51,1,CognitiveEffortDiscounting,15,CogED_N4_2,121,4,0,2,4,blackframe.png,1,NA,25,0,2335,25pct,0.28125,3,4,0,0,0.03125,NA,NA,NA,NA,NA,NA,51
6.4.0,win,3/10/21,16:42:16,51,1,CognitiveEffortDiscounting,15,CogED_N3_3,125,4,0,2,3,blackframe.png,1,NA,25,0,1464,75pct,0.5,4,1,0,0,0.03125,NA,NA,NA,NA,NA,NA,51
6.4.0,win,3/10/21,16:42:16,51,1,CognitiveEffortDiscounting,15,CogED_N4_1,133,4,0,2,4,blackframe.png,1,NA,25,0,1202,25pct,0.0625,2,4,0,0,0.03125,NA,NA,NA,NA,NA,NA,51
6.4.0,win,3/10/21,16:42:16,51,1,CognitiveEffortDiscounting,15,CogED_N2_3,135,4,0,2,2,blackframe.png,1,NA,25,0,1389,75pct,2.625,4,1,0,0,0.03125,NA,NA,NA,NA,NA,NA,51
6.4.0,win,3/10/21,16:42:16,51,1,CognitiveEffortDiscounting,15,CogED_N4_3,137,4,0,2,4,blackframe.png,1,NA,25,0,1506,25pct,0.375,4,4,0,0,0.03125,NA,NA,NA,NA,NA,NA,51
6.4.0,win,3/10/21,16:42:16,51,1,CognitiveEffortDiscounting,15,CogED_N3_3,140,4,0,2,3,blackframe.png,1,NA,25,0,1056,25pct,0.25,4,3,0,0,0.03125,NA,NA,NA,NA,NA,NA,51
6.4.0,win,3/10/21,16:42:16,51,1,CognitiveEffortDiscounting,15,CogED_N3_3,142,4,0,2,3,blackframe.png,1,NA,25,0,706,25pct,0.375,4,3,0,0,0.03125,NA,NA,NA,NA,NA,NA,51
6.4.0,win,3/10/21,16:42:16,51,1,phase3,17,start,3,4,1,3,1,,1,0,37,1,727,,NA,NA,NA,1,0,0.03125,NA,NA,NA,NA,NA,NA,51
6.4.0,win,3/10/21,16:42:16,51,1,phase3,17,target,5,4,1,3,1,P,12,12,31,1,913,,NA,NA,NA,1,0,0.03125,NA,NA,NA,NA,NA,NA,51
6.4.0,win,3/10/21,16:42:16,51,1,phase3,17,nontarget,7,4,1,3,1,Q,13,12,37,1,763,,NA,NA,NA,1,0,0.03125,NA,NA,NA,NA,NA,NA,51
6.4.0,win,3/10/21,16:42:16,51,1,phase3,17,nontarget,9,4,1,3,1,G,5,13,37,1,686,,NA,NA,NA,1,0,0.03125,NA,NA,NA,NA,NA,NA,51
6.4.0,win,3/10/21,16:42:16,51,1,phase3,17,nontarget,11,4,1,3,1,F,4,5,37,1,696,,NA,NA,NA,1,0,0.03125,NA,NA,NA,NA,NA,NA,51
6.4.0,win,3/10/21,16:42:16,51,1,phase3,17,nontarget,13,4,1,3,1,W,18,4,37,1,642,,NA,NA,NA,1,0,0.03125,NA,NA,NA,NA,NA,NA,51
6.4.0,win,3/10/21,16:42:16,51,1,phase3,17,nontarget,15,4,1,3,1,G,5,18,37,1,820,,NA,NA,NA,1,0,0.03125,NA,NA,NA,NA,NA,NA,51
6.4.0,win,3/10/21,16:42:16,51,1,phase3,17,nontarget,17,4,1,3,1,S,15,5,37,1,647,,NA,NA,NA,1,0,0.03125,NA,NA,NA,NA,NA,NA,51
6.4.0,win,3/10/21,16:42:16,51,1,phase3,17,nontarget,19,4,1,3,1,X,19,15,37,1,496,,NA,NA,NA,1,0,0.03125,NA,NA,NA,NA,NA,NA,51
6.4.0,win,3/10/21,16:42:16,51,1,phase3,17,target,21,4,1,3,1,X,19,19,31,1,595,,NA,NA,NA,1,0,0.03125,NA,NA,NA,NA,NA,NA,51
6.4.0,win,3/10/21,16:42:16,51,1,phase3,17,nontarget,23,4,1,3,1,R,14,19,37,1,653,,NA,NA,NA,1,0,0.03125,NA,NA,NA,NA,NA,NA,51
6.4.0,win,3/10/21,16:42:16,51,1,phase3,17,target,25,4,1,3,1,R,14,14,31,1,655,,NA,NA,NA,1,0,0.03125,NA,NA,NA,NA,NA,NA,51
6.4.0,win,3/10/21,16:42:16,51,1,phase3,17,nontarget,27,4,1,3,1,K,8,14,37,1,922,,NA,NA,NA,1,0,0.03125,NA,NA,NA,NA,NA,NA,51
6.4.0,win,3/10/21,16:42:16,51,1,phase3,17,nontarget,29,4,1,3,1,T,16,8,37,1,524,,NA,NA,NA,1,0,0.03125,NA,NA,NA,NA,NA,NA,51
6.4.0,win,3/10/21,16:42:16,51,1,phase3,17,nontarget,31,4,1,3,1,X,19,16,37,1,671,,NA,NA,NA,1,0,0.03125,NA,NA,NA,NA,NA,NA,51
6.4.0,win,3/10/21,16:42:16,51,1,phase3,17,nontarget,33,4,1,3,1,F,4,19,37,1,577,,NA,NA,NA,1,0,0.03125,NA,NA,NA,NA,NA,NA,51
6.4.0,win,3/10/21,16:42:16,51,1,phase3,17,nontarget,35,4,1,3,1,N,11,4,37,1,924,,NA,NA,NA,1,0,0.03125,NA,NA,NA,NA,NA,NA,51
6.4.0,win,3/10/21,16:42:16,51,1,phase3,17,nontarget,37,4,1,3,1,S,15,11,37,1,694,,NA,NA,NA,1,0,0.03125,NA,NA,NA,NA,NA,NA,51
6.4.0,win,3/10/21,16:42:16,51,1,phase3,17,target,39,4,1,3,1,S,15,15,31,1,569,,NA,NA,NA,1,0,0.03125,NA,NA,NA,NA,NA,NA,51
6.4.0,win,3/10/21,16:42:16,51,1,phase3,17,nontarget,41,4,1,3,1,G,5,15,37,1,579,,NA,NA,NA,1,0,0.03125,NA,NA,NA,NA,NA,NA,51
6.4.0,win,3/10/21,16:42:16,51,1,phase3,17,target,43,4,1,3,1,G,5,5,31,1,749,,NA,NA,NA,1,0,0.03125,NA,NA,NA,NA,NA,NA,51
6.4.0,win,3/10/21,16:42:16,51,1,finish,18,finish,1,4,1,3,1,Thank you!,1,5,57,0,1016,,NA,NA,NA,1,1,0.03125,NA,NA,NA,NA,NA,NA,51
6.4.0,win,3/10/21,22:41:19,27,1,1back,2,start,3,1,0,1,1,,1,0,0,0,2000,25pct,NA,NA,NA,0,0,0,NA,NA,NA,NA,NA,NA,27
6.4.0,win,3/10/21,22:41:19,27,1,1back,2,target,5,1,0,1,1,Q,13,13,0,0,2000,25pct,NA,NA,NA,0,0,0,NA,NA,NA,NA,NA,NA,27
6.4.0,win,3/10/21,22:41:19,27,1,1back,2,nontarget,7,1,0,1,1,V,17,13,0,0,2000,25pct,NA,NA,NA,0,0,0,NA,NA,NA,NA,NA,NA,27
6.4.0,win,3/10/21,22:41:19,27,1,1back,2,nontarget,9,1,0,1,1,W,18,17,0,0,2000,25pct,NA,NA,NA,0,0,0,NA,NA,NA,NA,NA,NA,27
6.4.0,win,3/10/21,22:41:19,27,1,1back,2,nontarget,11,1,0,1,1,G,5,18,0,0,2000,25pct,NA,NA,NA,0,0,0,NA,NA,NA,NA,NA,NA,27
6.4.0,win,3/10/21,22:41:19,27,1,1back,2,nontarget,13,1,0,1,1,N,11,5,0,0,2000,25pct,NA,NA,NA,0,0,0,NA,NA,NA,NA,NA,NA,27
6.4.0,win,3/10/21,22:41:19,27,1,1back,2,nontarget,15,1,0,1,1,X,19,11,31,0,1224,25pct,NA,NA,NA,0,0,0,NA,NA,NA,NA,NA,NA,27
6.4.0,win,3/10/21,22:41:19,27,1,1back,2,nontarget,17,1,0,1,1,Z,20,19,0,0,2000,25pct,NA,NA,NA,0,0,0,NA,NA,NA,NA,NA,NA,27
6.4.0,win,3/10/21,22:41:19,27,1,1back,2,nontarget,19,1,0,1,1,B,1,20,31,0,1247,25pct,NA,NA,NA,0,0,0,NA,NA,NA,NA,NA,NA,27
6.4.0,win,3/10/21,22:41:19,27,1,1back,2,target,21,1,0,1,1,B,1,1,31,1,993,25pct,NA,NA,NA,0,0,0,NA,NA,NA,NA,NA,NA,27
6.4.0,win,3/10/21,22:41:19,27,1,1back,2,nontarget,23,1,0,1,1,N,11,1,0,0,2000,25pct,NA,NA,NA,0,0,0,NA,NA,NA,NA,NA,NA,27
6.4.0,win,3/10/21,22:41:19,27,1,1back,2,nontarget,25,1,0,1,1,R,14,11,0,0,2000,25pct,NA,NA,NA,0,0,0,NA,NA,NA,NA,NA,NA,27
6.4.0,win,3/10/21,22:41:19,27,1,1back,2,nontarget,27,1,0,1,1,V,17,14,31,0,713,25pct,NA,NA,NA,0,0,0,NA,NA,NA,NA,NA,NA,27
6.4.0,win,3/10/21,22:41:19,27,1,1back,2,nontarget,29,1,0,1,1,X,19,17,0,0,2000,25pct,NA,NA,NA,0,0,0,NA,NA,NA,NA,NA,NA,27
6.4.0,win,3/10/21,22:41:19,27,1,1back,2,nontarget,31,1,0,1,1,T,16,19,0,0,2000,25pct,NA,NA,NA,0,0,0,NA,NA,NA,NA,NA,NA,27
6.4.0,win,3/10/21,22:41:19,27,1,1back,2,target,33,1,0,1,1,T,16,16,31,1,981,25pct,NA,NA,NA,0,0,0,NA,NA,NA,NA,NA,NA,27
6.4.0,win,3/10/21,22:41:19,27,1,1back,2,target,35,1,0,1,1,T,16,16,31,1,867,25pct,NA,NA,NA,0,0,0,NA,NA,NA,NA,NA,NA,27
6.4.0,win,3/10/21,22:41:19,27,1,1back,2,nontarget,37,1,0,1,1,W,18,16,37,1,1323,25pct,NA,NA,NA,0,0,0,NA,NA,NA,NA,NA,NA,27
6.4.0,win,3/10/21,22:41:19,27,1,1back,2,target,39,1,0,1,1,W,18,18,31,1,917,25pct,NA,NA,NA,0,0,0,NA,NA,NA,NA,NA,NA,27
6.4.0,win,3/10/21,22:41:19,27,1,1back,2,nontarget,41,1,0,1,1,M,10,18,37,1,1462,25pct,NA,NA,NA,0,0,0,NA,NA,NA,NA,NA,NA,27
6.4.0,win,3/10/21,22:41:19,27,1,1back,2,nontarget,43,1,0,1,1,G,5,10,31,0,404,25pct,NA,NA,NA,0,0,0,NA,NA,NA,NA,NA,NA,27
6.4.0,win,3/10/21,22:41:19,27,1,ratingSummary,4,ratingSummary,1,1,0,1,1,0,0,NA,0,0,0,25pct,NA,NA,NA,0,0,0,6,3,9,1,13,18,27
6.4.0,win,3/10/21,22:41:19,27,1,2back,5,start,3,2,0,1,2,,1,0,0,0,2000,25pct,NA,NA,NA,0,0,0,NA,NA,NA,NA,NA,NA,27
6.4.0,win,3/10/21,22:41:19,27,1,2back,5,start,4,2,0,1,2,,1,0,0,0,2000,25pct,NA,NA,NA,0,0,0,NA,NA,NA,NA,NA,NA,27
6.4.0,win,3/10/21,22:41:19,27,1,2back,5,nontarget,6,2,0,1,2,P,12,20,37,1,1131,25pct,NA,NA,NA,0,0,0,NA,NA,NA,NA,NA,NA,27
6.4.0,win,3/10/21,22:41:19,27,1,2back,5,nontarget,8,2,0,1,2,B,1,13,0,0,2000,25pct,NA,NA,NA,0,0,0,NA,NA,NA,NA,NA,NA,27
6.4.0,win,3/10/21,22:41:19,27,1,2back,5,nontarget,10,2,0,1,2,R,14,12,0,0,2000,25pct,NA,NA,NA,0,0,0,NA,NA,NA,NA,NA,NA,27
6.4.0,win,3/10/21,22:41:19,27,1,2back,5,target,12,2,0,1,2,B,1,1,31,1,1235,25pct,NA,NA,NA,0,0,0,NA,NA,NA,NA,NA,NA,27
6.4.0,win,3/10/21,22:41:19,27,1,2back,5,nontarget,14,2,0,1,2,F,4,14,37,1,654,25pct,NA,NA,NA,0,0,0,NA,NA,NA,NA,NA,NA,27
6.4.0,win,3/10/21,22:41:19,27,1,2back,5,target,16,2,0,1,2,B,1,1,31,1,760,25pct,NA,NA,NA,0,0,0,NA,NA,NA,NA,NA,NA,27
6.4.0,win,3/10/21,22:41:19,27,1,2back,5,target,18,2,0,1,2,F,4,4,31,1,1530,25pct,NA,NA,NA,0,0,0,NA,NA,NA,NA,NA,NA,27
6.4.0,win,3/10/21,22:41:19,27,1,2back,5,nontarget,20,2,0,1,2,X,19,1,37,1,1485,25pct,NA,NA,NA,0,0,0,NA,NA,NA,NA,NA,NA,27
6.4.0,win,3/10/21,22:41:19,27,1,2back,5,nontarget,22,2,0,1,2,T,16,4,37,1,1655,25pct,NA,NA,NA,0,0,0,NA,NA,NA,NA,NA,NA,27
6.4.0,win,3/10/21,22:41:19,27,1,2back,5,nontarget,24,2,0,1,2,G,5,19,37,1,726,25pct,NA,NA,NA,0,0,0,NA,NA,NA,NA,NA,NA,27
6.4.0,win,3/10/21,22:41:19,27,1,2back,5,nontarget,26,2,0,1,2,K,8,16,37,1,1861,25pct,NA,NA,NA,0,0,0,NA,NA,NA,NA,NA,NA,27
6.4.0,win,3/10/21,22:41:19,27,1,2back,5,target,28,2,0,1,2,G,5,5,31,1,687,25pct,NA,NA,NA,0,0,0,NA,NA,NA,NA,NA,NA,27
6.4.0,win,3/10/21,22:41:19,27,1,2back,5,nontarget,30,2,0,1,2,T,16,8,37,1,1248,25pct,NA,NA,NA,0,0,0,NA,NA,NA,NA,NA,NA,27
6.4.0,win,3/10/21,22:41:19,27,1,2back,5,nontarget,32,2,0,1,2,N,11,5,37,1,922,25pct,NA,NA,NA,0,0,0,NA,NA,NA,NA,NA,NA,27
6.4.0,win,3/10/21,22:41:19,27,1,2back,5,nontarget,34,2,0,1,2,G,5,16,0,0,2000,25pct,NA,NA,NA,0,0,0,NA,NA,NA,NA,NA,NA,27
